Series_reference,Period,Data_value,Profit,Suppressed,STATUS,UNITS,Magnitude,Subject,Group,Series_title_1,Series_title_2,Series_title_3,Series_title_4,Series_title_5
WTSQ.SFA1CA,1995.03,2368.69,10835,,F,Dollars,6,Wholesale Trade Survey - WTS,Industry by variable - (ANZSIC06) - Subannual Financial Collection,Basic material wholesaling,Sales (operating income),Current prices,Unadjusted,
WTSQ.SFA1CA,1995.06,2100.44,3465,,F,Dollars,6,Wholesale Trade Survey - WTS,Industry by variable - (ANZSIC06) - Subannual Financial Collection,Basic material wholesaling,Sales (operating income),Current prices,Unadjusted,
WTSQ.SFA1CA,1995.09,2070.21,18049,,F,Dollars,6,Wholesale Trade Survey - WTS,Industry by variable - (ANZSIC06) - Subannual Financial Collection,Basic material wholesaling,Sales (operating income),Current prices,Unadjusted,
WTSQ.SFA1CA,1995.12,2284.77,31919,,F,Dollars,6,Wholesale Trade Survey - WTS,Industry by variable - (ANZSIC06) - Subannual Financial Collection,Basic material wholesaling,Sales (operating income),Current prices,Unadjusted,
WTSQ.SFA1CA,1996.03,2134.76,13457,,F,Dollars,6,Wholesale Trade Survey - WTS,Industry by variable - (ANZSIC06) - Subannual Financial Collection,Basic material wholesaling,Sales (operating income),Current prices,Unadjusted,
WTSQ.SFA1CA,1996.06,2038.45,15685,,F,Dollars,6,Wholesale Trade Survey - WTS,Industry by variable - (ANZSIC06) - Subannual Financial Collection,Basic material wholesaling,Sales (operating income),Current prices,Unadjusted,
WTSQ.SFA1CA,1996.09,2031.17,18989,,F,Dollars,6,Wholesale Trade Survey - WTS,Industry by variable - (ANZSIC06) - Subannual Financial Collection,Basic material wholesaling,Sales (operating income),Current prices,Unadjusted,
WTSQ.SFA1CA,1996.12,2263.97,18864,,F,Dollars,6,Wholesale Trade Survey - WTS,Industry by variable - (ANZSIC06) - Subannual Financial Collection,Basic material wholesaling,Sales (operating income),Current prices,Unadjusted,
WTSQ.SFA1CA,1997.03,1997.05,18281,,F,Dollars,6,Wholesale Trade Survey - WTS,Industry by variable - (ANZSIC06) - Subannual Financial Collection,Basic material wholesaling,Sales (operating income),Current prices,Unadjusted,
WTSQ.SFA1CA,1997.06,2025.13,34254,,F,Dollars,6,Wholesale Trade Survey - WTS,Industry by variable - (ANZSIC06) - Subannual Financial Collection,Basic material wholesaling,Sales (operating income),Current prices,Unadjusted,
WTSQ.SFA1CA,1997.09,2009.55,32248,,F,Dollars,6,Wholesale Trade Survey - WTS,Industry by variable - (ANZSIC06) - Subannual Financial Collection,Basic material wholesaling,Sales (operating income),Current prices,Unadjusted,
WTSQ.SFA1CA,1997.12,2199.21,5944,,F,Dollars,6,Wholesale Trade Survey - WTS,Industry by variable - (ANZSIC06) - Subannual Financial Collection,Basic material wholesaling,Sales (operating income),Current prices,Unadjusted,
WTSQ.SFA1CA,1998.03,2081.28,7360,,F,Dollars,6,Wholesale Trade Survey - WTS,Industry by variable - (ANZSIC06) - Subannual Financial Collection,Basic material wholesaling,Sales (operating income),Current prices,Unadjusted,
WTSQ.SFA1CA,1998.06,2074.51,31869,,F,Dollars,6,Wholesale Trade Survey - WTS,Industry by variable - (ANZSIC06) - Subannual Financial Collection,Basic material wholesaling,Sales (operating income),Current prices,Unadjusted,
WTSQ.SFA1CA,1998.09,1945.92,20889,,F,Dollars,6,Wholesale Trade Survey - WTS,Industry by variable - (ANZSIC06) - Subannual Financial Collection,Basic material wholesaling,Sales (operating income),Current prices,Unadjusted,
WTSQ.SFA1CA,1998.12,2174.62,2124,,F,Dollars,6,Wholesale Trade Survey - WTS,Industry by variable - (ANZSIC06) - Subannual Financial Collection,Basic material wholesaling,Sales (operating income),Current prices,Unadjusted,
WTSQ.SFA1CA,1999.03,2041.11,15218,,F,Dollars,6,Wholesale Trade Survey - WTS,Industry by variable - (ANZSIC06) - Subannual Financial Collection,Basic material wholesaling,Sales (operating income),Current prices,Unadjusted,
WTSQ.SFA1CA,1999.06,2086.81,9613,,F,Dollars,6,Wholesale Trade Survey - WTS,Industry by variable - (ANZSIC06) - Subannual Financial Collection,Basic material wholesaling,Sales (operating income),Current prices,Unadjusted,
WTSQ.SFA1CA,1999.09,2189.79,11823,,F,Dollars,6,Wholesale Trade Survey - WTS,Industry by variable - (ANZSIC06) - Subannual Financial Collection,Basic material wholesaling,Sales (operating income),Current prices,Unadjusted,
WTSQ.SFA1CA,1999.12,2285.29,20821,,F,Dollars,6,Wholesale Trade Survey - WTS,Industry by variable - (ANZSIC06) - Subannual Financial Collection,Basic material wholesaling,Sales (operating income),Current prices,Unadjusted,
WTSQ.SFA1CA,2000.03,2222.68,21079,,F,Dollars,6,Wholesale Trade Survey - WTS,Industry by variable - (ANZSIC06) - Subannual Financial Collection,Basic material wholesaling,Sales (operating income),Current prices,Unadjusted,
WTSQ.SFA1CA,2000.06,2281.39,14747,,F,Dollars,6,Wholesale Trade Survey - WTS,Industry by variable - (ANZSIC06) - Subannual Financial Collection,Basic material wholesaling,Sales (operating income),Current prices,Unadjusted,
WTSQ.SFA1CA,2000.09,2314.49,30183,,F,Dollars,6,Wholesale Trade Survey - WTS,Industry by variable - (ANZSIC06) - Subannual Financial Collection,Basic material wholesaling,Sales (operating income),Current prices,Unadjusted,
WTSQ.SFA1CA,2000.12,2725.07,35888,,F,Dollars,6,Wholesale Trade Survey - WTS,Industry by variable - (ANZSIC06) - Subannual Financial Collection,Basic material wholesaling,Sales (operating income),Current prices,Unadjusted,
WTSQ.SFA1CA,2001.03,2455.79,8102,,F,Dollars,6,Wholesale Trade Survey - WTS,Industry by variable - (ANZSIC06) - Subannual Financial Collection,Basic material wholesaling,Sales (operating income),Current prices,Unadjusted,
WTSQ.SFA1CA,2001.06,2656.11,151,,F,Dollars,6,Wholesale Trade Survey - WTS,Industry by variable - (ANZSIC06) - Subannual Financial Collection,Basic material wholesaling,Sales (operating income),Current prices,Unadjusted,
WTSQ.SFA1CA,2001.09,2654.37,33831,,F,Dollars,6,Wholesale Trade Survey - WTS,Industry by variable - (ANZSIC06) - Subannual Financial Collection,Basic material wholesaling,Sales (operating income),Current prices,Unadjusted,
WTSQ.SFA1CA,2001.12,2745.46,10881,,F,Dollars,6,Wholesale Trade Survey - WTS,Industry by variable - (ANZSIC06) - Subannual Financial Collection,Basic material wholesaling,Sales (operating income),Current prices,Unadjusted,
WTSQ.SFA1CA,2002.03,2652.62,32055,,F,Dollars,6,Wholesale Trade Survey - WTS,Industry by variable - (ANZSIC06) - Subannual Financial Collection,Basic material wholesaling,Sales (operating income),Current prices,Unadjusted,
WTSQ.SFA1CA,2002.06,2682.44,27086,,F,Dollars,6,Wholesale Trade Survey - WTS,Industry by variable - (ANZSIC06) - Subannual Financial Collection,Basic material wholesaling,Sales (operating income),Current prices,Unadjusted,
WTSQ.SFA1CA,2002.09,2728.65,15885,,F,Dollars,6,Wholesale Trade Survey - WTS,Industry by variable - (ANZSIC06) - Subannual Financial Collection,Basic material wholesaling,Sales (operating income),Current prices,Unadjusted,
WTSQ.SFA1CA,2002.12,2829.27,31066,,F,Dollars,6,Wholesale Trade Survey - WTS,Industry by variable - (ANZSIC06) - Subannual Financial Collection,Basic material wholesaling,Sales (operating income),Current prices,Unadjusted,
WTSQ.SFA1CA,2003.03,2544.22,31476,,F,Dollars,6,Wholesale Trade Survey - WTS,Industry by variable - (ANZSIC06) - Subannual Financial Collection,Basic material wholesaling,Sales (operating income),Current prices,Unadjusted,
WTSQ.SFA1CA,2003.06,2558.36,26490,,F,Dollars,6,Wholesale Trade Survey - WTS,Industry by variable - (ANZSIC06) - Subannual Financial Collection,Basic material wholesaling,Sales (operating income),Current prices,Unadjusted,
WTSQ.SFA1CA,2003.09,2576.08,20136,,F,Dollars,6,Wholesale Trade Survey - WTS,Industry by variable - (ANZSIC06) - Subannual Financial Collection,Basic material wholesaling,Sales (operating income),Current prices,Unadjusted,
WTSQ.SFA1CA,2003.12,2812.78,25830,,F,Dollars,6,Wholesale Trade Survey - WTS,Industry by variable - (ANZSIC06) - Subannual Financial Collection,Basic material wholesaling,Sales (operating income),Current prices,Unadjusted,
WTSQ.SFA1CA,2004.03,2553.85,8339,,F,Dollars,6,Wholesale Trade Survey - WTS,Industry by variable - (ANZSIC06) - Subannual Financial Collection,Basic material wholesaling,Sales (operating income),Current prices,Unadjusted,
WTSQ.SFA1CA,2004.06,2839.01,5788,,F,Dollars,6,Wholesale Trade Survey - WTS,Industry by variable - (ANZSIC06) - Subannual Financial Collection,Basic material wholesaling,Sales (operating income),Current prices,Unadjusted,
WTSQ.SFA1CA,2004.09,2944.86,22750,,F,Dollars,6,Wholesale Trade Survey - WTS,Industry by variable - (ANZSIC06) - Subannual Financial Collection,Basic material wholesaling,Sales (operating income),Current prices,Unadjusted,
WTSQ.SFA1CA,2004.12,3127.86,31406,,F,Dollars,6,Wholesale Trade Survey - WTS,Industry by variable - (ANZSIC06) - Subannual Financial Collection,Basic material wholesaling,Sales (operating income),Current prices,Unadjusted,
WTSQ.SFA1CA,2005.03,2866.78,1657,,F,Dollars,6,Wholesale Trade Survey - WTS,Industry by variable - (ANZSIC06) - Subannual Financial Collection,Basic material wholesaling,Sales (operating income),Current prices,Unadjusted,
WTSQ.SFA1CA,2005.06,3136.88,27140,,F,Dollars,6,Wholesale Trade Survey - WTS,Industry by variable - (ANZSIC06) - Subannual Financial Collection,Basic material wholesaling,Sales (operating income),Current prices,Unadjusted,
WTSQ.SFA1CA,2005.09,3191.08,28873,,F,Dollars,6,Wholesale Trade Survey - WTS,Industry by variable - (ANZSIC06) - Subannual Financial Collection,Basic material wholesaling,Sales (operating income),Current prices,Unadjusted,
WTSQ.SFA1CA,2005.12,3368.75,11344,,F,Dollars,6,Wholesale Trade Survey - WTS,Industry by variable - (ANZSIC06) - Subannual Financial Collection,Basic material wholesaling,Sales (operating income),Current prices,Unadjusted,
WTSQ.SFA1CA,2006.03,3159.73,19789,,F,Dollars,6,Wholesale Trade Survey - WTS,Industry by variable - (ANZSIC06) - Subannual Financial Collection,Basic material wholesaling,Sales (operating income),Current prices,Unadjusted,
WTSQ.SFA1CA,2006.06,3326.03,7736,,F,Dollars,6,Wholesale Trade Survey - WTS,Industry by variable - (ANZSIC06) - Subannual Financial Collection,Basic material wholesaling,Sales (operating income),Current prices,Unadjusted,
WTSQ.SFA1CA,2006.09,3644.39,7408,,F,Dollars,6,Wholesale Trade Survey - WTS,Industry by variable - (ANZSIC06) - Subannual Financial Collection,Basic material wholesaling,Sales (operating income),Current prices,Unadjusted,
WTSQ.SFA1CA,2006.12,3726.87,14954,,F,Dollars,6,Wholesale Trade Survey - WTS,Industry by variable - (ANZSIC06) - Subannual Financial Collection,Basic material wholesaling,Sales (operating income),Current prices,Unadjusted,
WTSQ.SFA1CA,2007.03,3409.54,30478,,F,Dollars,6,Wholesale Trade Survey - WTS,Industry by variable - (ANZSIC06) - Subannual Financial Collection,Basic material wholesaling,Sales (operating income),Current prices,Unadjusted,
WTSQ.SFA1CA,2007.06,3590.18,18519,,F,Dollars,6,Wholesale Trade Survey - WTS,Industry by variable - (ANZSIC06) - Subannual Financial Collection,Basic material wholesaling,Sales (operating income),Current prices,Unadjusted,
WTSQ.SFA1CA,2007.09,3751.05,28438,,F,Dollars,6,Wholesale Trade Survey - WTS,Industry by variable - (ANZSIC06) - Subannual Financial Collection,Basic material wholesaling,Sales (operating income),Current prices,Unadjusted,
WTSQ.SFA1CA,2007.12,4130.79,1508,,F,Dollars,6,Wholesale Trade Survey - WTS,Industry by variable - (ANZSIC06) - Subannual Financial Collection,Basic material wholesaling,Sales (operating income),Current prices,Unadjusted,
WTSQ.SFA1CA,2008.03,3845.42,34354,,F,Dollars,6,Wholesale Trade Survey - WTS,Industry by variable - (ANZSIC06) - Subannual Financial Collection,Basic material wholesaling,Sales (operating income),Current prices,Unadjusted,
WTSQ.SFA1CA,2008.06,4168.7,15192,,F,Dollars,6,Wholesale Trade Survey - WTS,Industry by variable - (ANZSIC06) - Subannual Financial Collection,Basic material wholesaling,Sales (operating income),Current prices,Unadjusted,
WTSQ.SFA1CA,2008.09,4295.96,7296,,F,Dollars,6,Wholesale Trade Survey - WTS,Industry by variable - (ANZSIC06) - Subannual Financial Collection,Basic material wholesaling,Sales (operating income),Current prices,Unadjusted,
WTSQ.SFA1CA,2008.12,4388.39,23492,,F,Dollars,6,Wholesale Trade Survey - WTS,Industry by variable - (ANZSIC06) - Subannual Financial Collection,Basic material wholesaling,Sales (operating income),Current prices,Unadjusted,
WTSQ.SFA1CA,2009.03,3519.89,24575,,F,Dollars,6,Wholesale Trade Survey - WTS,Industry by variable - (ANZSIC06) - Subannual Financial Collection,Basic material wholesaling,Sales (operating income),Current prices,Unadjusted,
WTSQ.SFA1CA,2009.06,3470.2,33346,,F,Dollars,6,Wholesale Trade Survey - WTS,Industry by variable - (ANZSIC06) - Subannual Financial Collection,Basic material wholesaling,Sales (operating income),Current prices,Unadjusted,
WTSQ.SFA1CA,2009.09,3640.8,9751,,F,Dollars,6,Wholesale Trade Survey - WTS,Industry by variable - (ANZSIC06) - Subannual Financial Collection,Basic material wholesaling,Sales (operating income),Current prices,Unadjusted,
WTSQ.SFA1CA,2009.12,3915.1,33524,,F,Dollars,6,Wholesale Trade Survey - WTS,Industry by variable - (ANZSIC06) - Subannual Financial Collection,Basic material wholesaling,Sales (operating income),Current prices,Unadjusted,
WTSQ.SFA1CA,2010.03,3528.19,18232,,F,Dollars,6,Wholesale Trade Survey - WTS,Industry by variable - (ANZSIC06) - Subannual Financial Collection,Basic material wholesaling,Sales (operating income),Current prices,Unadjusted,
WTSQ.SFA1CA,2010.06,3823.29,1282,,F,Dollars,6,Wholesale Trade Survey - WTS,Industry by variable - (ANZSIC06) - Subannual Financial Collection,Basic material wholesaling,Sales (operating income),Current prices,Unadjusted,
WTSQ.SFA1CA,2010.09,4127.92,30131,,F,Dollars,6,Wholesale Trade Survey - WTS,Industry by variable - (ANZSIC06) - Subannual Financial Collection,Basic material wholesaling,Sales (operating income),Current prices,Unadjusted,
WTSQ.SFA1CA,2010.12,4715.56,8145,,F,Dollars,6,Wholesale Trade Survey - WTS,Industry by variable - (ANZSIC06) - Subannual Financial Collection,Basic material wholesaling,Sales (operating income),Current prices,Unadjusted,
WTSQ.SFA1CA,2011.03,4396.69,33125,,F,Dollars,6,Wholesale Trade Survey - WTS,Industry by variable - (ANZSIC06) - Subannual Financial Collection,Basic material wholesaling,Sales (operating income),Current prices,Unadjusted,
WTSQ.SFA1CA,2011.06,4482.04,11749,,F,Dollars,6,Wholesale Trade Survey - WTS,Industry by variable - (ANZSIC06) - Subannual Financial Collection,Basic material wholesaling,Sales (operating income),Current prices,Unadjusted,
WTSQ.SFA1CA,2011.09,4783.19,1115,,F,Dollars,6,Wholesale Trade Survey - WTS,Industry by variable - (ANZSIC06) - Subannual Financial Collection,Basic material wholesaling,Sales (operating income),Current prices,Unadjusted,
WTSQ.SFA1CA,2011.12,5126.04,8659,,F,Dollars,6,Wholesale Trade Survey - WTS,Industry by variable - (ANZSIC06) - Subannual Financial Collection,Basic material wholesaling,Sales (operating income),Current prices,Unadjusted,
WTSQ.SFA1CA,2012.03,4565.35,435,,F,Dollars,6,Wholesale Trade Survey - WTS,Industry by variable - (ANZSIC06) - Subannual Financial Collection,Basic material wholesaling,Sales (operating income),Current prices,Unadjusted,
WTSQ.SFA1CA,2012.06,4617.4,17516,,F,Dollars,6,Wholesale Trade Survey - WTS,Industry by variable - (ANZSIC06) - Subannual Financial Collection,Basic material wholesaling,Sales (operating income),Current prices,Unadjusted,
WTSQ.SFA1CA,2012.09,4625.6,27415,,F,Dollars,6,Wholesale Trade Survey - WTS,Industry by variable - (ANZSIC06) - Subannual Financial Collection,Basic material wholesaling,Sales (operating income),Current prices,Unadjusted,
WTSQ.SFA1CA,2012.12,5159.75,7285,,F,Dollars,6,Wholesale Trade Survey - WTS,Industry by variable - (ANZSIC06) - Subannual Financial Collection,Basic material wholesaling,Sales (operating income),Current prices,Unadjusted,
WTSQ.SFA1CA,2013.03,4509.09,27615,,F,Dollars,6,Wholesale Trade Survey - WTS,Industry by variable - (ANZSIC06) - Subannual Financial Collection,Basic material wholesaling,Sales (operating income),Current prices,Unadjusted,
WTSQ.SFA1CA,2013.06,4461.55,33943,,F,Dollars,6,Wholesale Trade Survey - WTS,Industry by variable - (ANZSIC06) - Subannual Financial Collection,Basic material wholesaling,Sales (operating income),Current prices,Unadjusted,
WTSQ.SFA1CA,2013.09,4698.45,5508,,F,Dollars,6,Wholesale Trade Survey - WTS,Industry by variable - (ANZSIC06) - Subannual Financial Collection,Basic material wholesaling,Sales (operating income),Current prices,Unadjusted,
WTSQ.SFA1CA,2013.12,5306.17,29318,,F,Dollars,6,Wholesale Trade Survey - WTS,Industry by variable - (ANZSIC06) - Subannual Financial Collection,Basic material wholesaling,Sales (operating income),Current prices,Unadjusted,
WTSQ.SFA1CA,2014.03,4945.39,19754,,F,Dollars,6,Wholesale Trade Survey - WTS,Industry by variable - (ANZSIC06) - Subannual Financial Collection,Basic material wholesaling,Sales (operating income),Current prices,Unadjusted,
WTSQ.SFA1CA,2014.06,4977.97,24707,,F,Dollars,6,Wholesale Trade Survey - WTS,Industry by variable - (ANZSIC06) - Subannual Financial Collection,Basic material wholesaling,Sales (operating income),Current prices,Unadjusted,
WTSQ.SFA1CA,2014.09,5139.46,28844,,F,Dollars,6,Wholesale Trade Survey - WTS,Industry by variable - (ANZSIC06) - Subannual Financial Collection,Basic material wholesaling,Sales (operating income),Current prices,Unadjusted,
WTSQ.SFA1CA,2014.12,5648.81,25760,,F,Dollars,6,Wholesale Trade Survey - WTS,Industry by variable - (ANZSIC06) - Subannual Financial Collection,Basic material wholesaling,Sales (operating income),Current prices,Unadjusted,
WTSQ.SFA1CA,2015.03,4854.3,9824,,F,Dollars,6,Wholesale Trade Survey - WTS,Industry by variable - (ANZSIC06) - Subannual Financial Collection,Basic material wholesaling,Sales (operating income),Current prices,Unadjusted,
WTSQ.SFA1CA,2015.06,4766.38,19500,,F,Dollars,6,Wholesale Trade Survey - WTS,Industry by variable - (ANZSIC06) - Subannual Financial Collection,Basic material wholesaling,Sales (operating income),Current prices,Unadjusted,
WTSQ.SFA1CA,2015.09,5110.743,35166,,F,Dollars,6,Wholesale Trade Survey - WTS,Industry by variable - (ANZSIC06) - Subannual Financial Collection,Basic material wholesaling,Sales (operating income),Current prices,Unadjusted,
WTSQ.SFA1CA,2015.12,5434.482,22530,,F,Dollars,6,Wholesale Trade Survey - WTS,Industry by variable - (ANZSIC06) - Subannual Financial Collection,Basic material wholesaling,Sales (operating income),Current prices,Unadjusted,
WTSQ.SFA1CA,2016.03,4622.498,16649,,F,Dollars,6,Wholesale Trade Survey - WTS,Industry by variable - (ANZSIC06) - Subannual Financial Collection,Basic material wholesaling,Sales (operating income),Current prices,Unadjusted,
WTSQ.SFA1CA,2016.06,4692.955,32782,,F,Dollars,6,Wholesale Trade Survey - WTS,Industry by variable - (ANZSIC06) - Subannual Financial Collection,Basic material wholesaling,Sales (operating income),Current prices,Unadjusted,
WTSQ.SFA1CA,2016.09,5028.472,32611,,F,Dollars,6,Wholesale Trade Survey - WTS,Industry by variable - (ANZSIC06) - Subannual Financial Collection,Basic material wholesaling,Sales (operating income),Current prices,Unadjusted,
WTSQ.SFA1CA,2016.12,5503.411,25947,,F,Dollars,6,Wholesale Trade Survey - WTS,Industry by variable - (ANZSIC06) - Subannual Financial Collection,Basic material wholesaling,Sales (operating income),Current prices,Unadjusted,
WTSQ.SFA1CA,2017.03,4991.618,18910,,F,Dollars,6,Wholesale Trade Survey - WTS,Industry by variable - (ANZSIC06) - Subannual Financial Collection,Basic material wholesaling,Sales (operating income),Current prices,Unadjusted,
WTSQ.SFA1CA,2017.06,5146.375,2411,,F,Dollars,6,Wholesale Trade Survey - WTS,Industry by variable - (ANZSIC06) - Subannual Financial Collection,Basic material wholesaling,Sales (operating income),Current prices,Unadjusted,
WTSQ.SFA1CA,2017.09,5646.508,1865,,F,Dollars,6,Wholesale Trade Survey - WTS,Industry by variable - (ANZSIC06) - Subannual Financial Collection,Basic material wholesaling,Sales (operating income),Current prices,Unadjusted,
WTSQ.SFA1CA,2017.12,6535.57,24415,,F,Dollars,6,Wholesale Trade Survey - WTS,Industry by variable - (ANZSIC06) - Subannual Financial Collection,Basic material wholesaling,Sales (operating income),Current prices,Unadjusted,
WTSQ.SFA1CA,2018.03,5561.831,25443,,F,Dollars,6,Wholesale Trade Survey - WTS,Industry by variable - (ANZSIC06) - Subannual Financial Collection,Basic material wholesaling,Sales (operating income),Current prices,Unadjusted,
WTSQ.SFA1CA,2018.06,5754.562,5059,,F,Dollars,6,Wholesale Trade Survey - WTS,Industry by variable - (ANZSIC06) - Subannual Financial Collection,Basic material wholesaling,Sales (operating income),Current prices,Unadjusted,
WTSQ.SFA1CA,2018.09,6328.241,10135,,F,Dollars,6,Wholesale Trade Survey - WTS,Industry by variable - (ANZSIC06) - Subannual Financial Collection,Basic material wholesaling,Sales (operating income),Current prices,Unadjusted,
WTSQ.SFA1CA,2018.12,6853.994,5716,,F,Dollars,6,Wholesale Trade Survey - WTS,Industry by variable - (ANZSIC06) - Subannual Financial Collection,Basic material wholesaling,Sales (operating income),Current prices,Unadjusted,
WTSQ.SFA1CA,2019.03,5989.659,16981,,F,Dollars,6,Wholesale Trade Survey - WTS,Industry by variable - (ANZSIC06) - Subannual Financial Collection,Basic material wholesaling,Sales (operating income),Current prices,Unadjusted,
WTSQ.SFA1CA,2019.06,6084.38,2251,,F,Dollars,6,Wholesale Trade Survey - WTS,Industry by variable - (ANZSIC06) - Subannual Financial Collection,Basic material wholesaling,Sales (operating income),Current prices,Unadjusted,
WTSQ.SFA1CA,2019.09,6318.721,12537,,F,Dollars,6,Wholesale Trade Survey - WTS,Industry by variable - (ANZSIC06) - Subannual Financial Collection,Basic material wholesaling,Sales (operating income),Current prices,Unadjusted,
WTSQ.SFA1CA,2019.12,6916.552,30779,,F,Dollars,6,Wholesale Trade Survey - WTS,Industry by variable - (ANZSIC06) - Subannual Financial Collection,Basic material wholesaling,Sales (operating income),Current prices,Unadjusted,
WTSQ.SFA1CA,2020.03,5969.353,26809,,F,Dollars,6,Wholesale Trade Survey - WTS,Industry by variable - (ANZSIC06) - Subannual Financial Collection,Basic material wholesaling,Sales (operating income),Current prices,Unadjusted,
WTSQ.SFA1CA,2020.06,5136.488,29719,,F,Dollars,6,Wholesale Trade Survey - WTS,Industry by variable - (ANZSIC06) - Subannual Financial Collection,Basic material wholesaling,Sales (operating income),Current prices,Unadjusted,
WTSQ.SFA1CA,2020.09,6487.489,19344,,F,Dollars,6,Wholesale Trade Survey - WTS,Industry by variable - (ANZSIC06) - Subannual Financial Collection,Basic material wholesaling,Sales (operating income),Current prices,Unadjusted,
WTSQ.SFA1CA,2020.12,7017.226,29249,,F,Dollars,6,Wholesale Trade Survey - WTS,Industry by variable - (ANZSIC06) - Subannual Financial Collection,Basic material wholesaling,Sales (operating income),Current prices,Unadjusted,
WTSQ.SFA1CA,2021.03,6437.11,9537,,F,Dollars,6,Wholesale Trade Survey - WTS,Industry by variable - (ANZSIC06) - Subannual Financial Collection,Basic material wholesaling,Sales (operating income),Current prices,Unadjusted,
WTSQ.SFA1CA,2021.06,6997.778,33661,,F,Dollars,6,Wholesale Trade Survey - WTS,Industry by variable - (ANZSIC06) - Subannual Financial Collection,Basic material wholesaling,Sales (operating income),Current prices,Unadjusted,
WTSQ.SFA1CA,2021.09,7319.495,28622,,F,Dollars,6,Wholesale Trade Survey - WTS,Industry by variable - (ANZSIC06) - Subannual Financial Collection,Basic material wholesaling,Sales (operating income),Current prices,Unadjusted,
WTSQ.SFA1CA,2021.12,9067.423,28551,,F,Dollars,6,Wholesale Trade Survey - WTS,Industry by variable - (ANZSIC06) - Subannual Financial Collection,Basic material wholesaling,Sales (operating income),Current prices,Unadjusted,
WTSQ.SFA1CS,1995.03,2387.55,10171,,R,Dollars,6,Wholesale Trade Survey - WTS,Industry by variable - (ANZSIC06) - Subannual Financial Collection,Basic material wholesaling,Sales (operating income),Current prices,Seasonally adjusted,
WTSQ.SFA1CS,1995.06,2159.985,28978,,R,Dollars,6,Wholesale Trade Survey - WTS,Industry by variable - (ANZSIC06) - Subannual Financial Collection,Basic material wholesaling,Sales (operating income),Current prices,Seasonally adjusted,
WTSQ.SFA1CS,1995.09,2138.235,83,,R,Dollars,6,Wholesale Trade Survey - WTS,Industry by variable - (ANZSIC06) - Subannual Financial Collection,Basic material wholesaling,Sales (operating income),Current prices,Seasonally adjusted,
WTSQ.SFA1CS,1995.12,2139.998,26520,,R,Dollars,6,Wholesale Trade Survey - WTS,Industry by variable - (ANZSIC06) - Subannual Financial Collection,Basic material wholesaling,Sales (operating income),Current prices,Seasonally adjusted,
WTSQ.SFA1CS,1996.03,2154.536,10383,,R,Dollars,6,Wholesale Trade Survey - WTS,Industry by variable - (ANZSIC06) - Subannual Financial Collection,Basic material wholesaling,Sales (operating income),Current prices,Seasonally adjusted,
WTSQ.SFA1CS,1996.06,2094.048,17890,,R,Dollars,6,Wholesale Trade Survey - WTS,Industry by variable - (ANZSIC06) - Subannual Financial Collection,Basic material wholesaling,Sales (operating income),Current prices,Seasonally adjusted,
WTSQ.SFA1CS,1996.09,2094.004,31095,,R,Dollars,6,Wholesale Trade Survey - WTS,Industry by variable - (ANZSIC06) - Subannual Financial Collection,Basic material wholesaling,Sales (operating income),Current prices,Seasonally adjusted,
WTSQ.SFA1CS,1996.12,2125.134,15312,,R,Dollars,6,Wholesale Trade Survey - WTS,Industry by variable - (ANZSIC06) - Subannual Financial Collection,Basic material wholesaling,Sales (operating income),Current prices,Seasonally adjusted,
WTSQ.SFA1CS,1997.03,2020.123,22130,,R,Dollars,6,Wholesale Trade Survey - WTS,Industry by variable - (ANZSIC06) - Subannual Financial Collection,Basic material wholesaling,Sales (operating income),Current prices,Seasonally adjusted,
WTSQ.SFA1CS,1997.06,2072.536,19424,,R,Dollars,6,Wholesale Trade Survey - WTS,Industry by variable - (ANZSIC06) - Subannual Financial Collection,Basic material wholesaling,Sales (operating income),Current prices,Seasonally adjusted,
WTSQ.SFA1CS,1997.09,2069.848,7922,,R,Dollars,6,Wholesale Trade Survey - WTS,Industry by variable - (ANZSIC06) - Subannual Financial Collection,Basic material wholesaling,Sales (operating income),Current prices,Seasonally adjusted,
WTSQ.SFA1CS,1997.12,2065.864,28732,,R,Dollars,6,Wholesale Trade Survey - WTS,Industry by variable - (ANZSIC06) - Subannual Financial Collection,Basic material wholesaling,Sales (operating income),Current prices,Seasonally adjusted,
WTSQ.SFA1CS,1998.03,2117.186,23439,,R,Dollars,6,Wholesale Trade Survey - WTS,Industry by variable - (ANZSIC06) - Subannual Financial Collection,Basic material wholesaling,Sales (operating income),Current prices,Seasonally adjusted,
WTSQ.SFA1CS,1998.06,2112.592,6122,,R,Dollars,6,Wholesale Trade Survey - WTS,Industry by variable - (ANZSIC06) - Subannual Financial Collection,Basic material wholesaling,Sales (operating income),Current prices,Seasonally adjusted,
WTSQ.SFA1CS,1998.09,1996.679,2647,,R,Dollars,6,Wholesale Trade Survey - WTS,Industry by variable - (ANZSIC06) - Subannual Financial Collection,Basic material wholesaling,Sales (operating income),Current prices,Seasonally adjusted,
WTSQ.SFA1CS,1998.12,2051.059,1936,,R,Dollars,6,Wholesale Trade Survey - WTS,Industry by variable - (ANZSIC06) - Subannual Financial Collection,Basic material wholesaling,Sales (operating income),Current prices,Seasonally adjusted,
WTSQ.SFA1CS,1999.03,2084.846,24761,,R,Dollars,6,Wholesale Trade Survey - WTS,Industry by variable - (ANZSIC06) - Subannual Financial Collection,Basic material wholesaling,Sales (operating income),Current prices,Seasonally adjusted,
WTSQ.SFA1CS,1999.06,2115.605,23629,,R,Dollars,6,Wholesale Trade Survey - WTS,Industry by variable - (ANZSIC06) - Subannual Financial Collection,Basic material wholesaling,Sales (operating income),Current prices,Seasonally adjusted,
WTSQ.SFA1CS,1999.09,2239.527,32632,,R,Dollars,6,Wholesale Trade Survey - WTS,Industry by variable - (ANZSIC06) - Subannual Financial Collection,Basic material wholesaling,Sales (operating income),Current prices,Seasonally adjusted,
WTSQ.SFA1CS,1999.12,2160.369,8640,,R,Dollars,6,Wholesale Trade Survey - WTS,Industry by variable - (ANZSIC06) - Subannual Financial Collection,Basic material wholesaling,Sales (operating income),Current prices,Seasonally adjusted,
WTSQ.SFA1CS,2000.03,2280.618,10641,,R,Dollars,6,Wholesale Trade Survey - WTS,Industry by variable - (ANZSIC06) - Subannual Financial Collection,Basic material wholesaling,Sales (operating income),Current prices,Seasonally adjusted,
WTSQ.SFA1CS,2000.06,2309.472,30542,,R,Dollars,6,Wholesale Trade Survey - WTS,Industry by variable - (ANZSIC06) - Subannual Financial Collection,Basic material wholesaling,Sales (operating income),Current prices,Seasonally adjusted,
WTSQ.SFA1CS,2000.09,2350.883,23828,,R,Dollars,6,Wholesale Trade Survey - WTS,Industry by variable - (ANZSIC06) - Subannual Financial Collection,Basic material wholesaling,Sales (operating income),Current prices,Seasonally adjusted,
WTSQ.SFA1CS,2000.12,2586.001,21667,,R,Dollars,6,Wholesale Trade Survey - WTS,Industry by variable - (ANZSIC06) - Subannual Financial Collection,Basic material wholesaling,Sales (operating income),Current prices,Seasonally adjusted,
WTSQ.SFA1CS,2001.03,2529.395,12223,,R,Dollars,6,Wholesale Trade Survey - WTS,Industry by variable - (ANZSIC06) - Subannual Financial Collection,Basic material wholesaling,Sales (operating income),Current prices,Seasonally adjusted,
WTSQ.SFA1CS,2001.06,2686.235,30738,,R,Dollars,6,Wholesale Trade Survey - WTS,Industry by variable - (ANZSIC06) - Subannual Financial Collection,Basic material wholesaling,Sales (operating income),Current prices,Seasonally adjusted,
WTSQ.SFA1CS,2001.09,2683.007,23274,,R,Dollars,6,Wholesale Trade Survey - WTS,Industry by variable - (ANZSIC06) - Subannual Financial Collection,Basic material wholesaling,Sales (operating income),Current prices,Seasonally adjusted,
WTSQ.SFA1CS,2001.12,2603.548,33350,,R,Dollars,6,Wholesale Trade Survey - WTS,Industry by variable - (ANZSIC06) - Subannual Financial Collection,Basic material wholesaling,Sales (operating income),Current prices,Seasonally adjusted,
WTSQ.SFA1CS,2002.03,2754.323,20365,,R,Dollars,6,Wholesale Trade Survey - WTS,Industry by variable - (ANZSIC06) - Subannual Financial Collection,Basic material wholesaling,Sales (operating income),Current prices,Seasonally adjusted,
WTSQ.SFA1CS,2002.06,2706.52,17457,,R,Dollars,6,Wholesale Trade Survey - WTS,Industry by variable - (ANZSIC06) - Subannual Financial Collection,Basic material wholesaling,Sales (operating income),Current prices,Seasonally adjusted,
WTSQ.SFA1CS,2002.09,2742.406,12268,,R,Dollars,6,Wholesale Trade Survey - WTS,Industry by variable - (ANZSIC06) - Subannual Financial Collection,Basic material wholesaling,Sales (operating income),Current prices,Seasonally adjusted,
WTSQ.SFA1CS,2002.12,2687.084,4827,,R,Dollars,6,Wholesale Trade Survey - WTS,Industry by variable - (ANZSIC06) - Subannual Financial Collection,Basic material wholesaling,Sales (operating income),Current prices,Seasonally adjusted,
WTSQ.SFA1CS,2003.03,2656.32,18503,,R,Dollars,6,Wholesale Trade Survey - WTS,Industry by variable - (ANZSIC06) - Subannual Financial Collection,Basic material wholesaling,Sales (operating income),Current prices,Seasonally adjusted,
WTSQ.SFA1CS,2003.06,2577.876,26846,,R,Dollars,6,Wholesale Trade Survey - WTS,Industry by variable - (ANZSIC06) - Subannual Financial Collection,Basic material wholesaling,Sales (operating income),Current prices,Seasonally adjusted,
WTSQ.SFA1CS,2003.09,2577.697,4348,,R,Dollars,6,Wholesale Trade Survey - WTS,Industry by variable - (ANZSIC06) - Subannual Financial Collection,Basic material wholesaling,Sales (operating income),Current prices,Seasonally adjusted,
WTSQ.SFA1CS,2003.12,2671.831,3456,,R,Dollars,6,Wholesale Trade Survey - WTS,Industry by variable - (ANZSIC06) - Subannual Financial Collection,Basic material wholesaling,Sales (operating income),Current prices,Seasonally adjusted,
WTSQ.SFA1CS,2004.03,2679.024,23868,,R,Dollars,6,Wholesale Trade Survey - WTS,Industry by variable - (ANZSIC06) - Subannual Financial Collection,Basic material wholesaling,Sales (operating income),Current prices,Seasonally adjusted,
WTSQ.SFA1CS,2004.06,2861.124,31547,,R,Dollars,6,Wholesale Trade Survey - WTS,Industry by variable - (ANZSIC06) - Subannual Financial Collection,Basic material wholesaling,Sales (operating income),Current prices,Seasonally adjusted,
WTSQ.SFA1CS,2004.09,2933.552,647,,R,Dollars,6,Wholesale Trade Survey - WTS,Industry by variable - (ANZSIC06) - Subannual Financial Collection,Basic material wholesaling,Sales (operating income),Current prices,Seasonally adjusted,
WTSQ.SFA1CS,2004.12,2972.054,34398,,R,Dollars,6,Wholesale Trade Survey - WTS,Industry by variable - (ANZSIC06) - Subannual Financial Collection,Basic material wholesaling,Sales (operating income),Current prices,Seasonally adjusted,
WTSQ.SFA1CS,2005.03,3015.921,343,,R,Dollars,6,Wholesale Trade Survey - WTS,Industry by variable - (ANZSIC06) - Subannual Financial Collection,Basic material wholesaling,Sales (operating income),Current prices,Seasonally adjusted,
WTSQ.SFA1CS,2005.06,3166.191,35685,,R,Dollars,6,Wholesale Trade Survey - WTS,Industry by variable - (ANZSIC06) - Subannual Financial Collection,Basic material wholesaling,Sales (operating income),Current prices,Seasonally adjusted,
WTSQ.SFA1CS,2005.09,3171.095,25750,,R,Dollars,6,Wholesale Trade Survey - WTS,Industry by variable - (ANZSIC06) - Subannual Financial Collection,Basic material wholesaling,Sales (operating income),Current prices,Seasonally adjusted,
WTSQ.SFA1CS,2005.12,3190.717,28212,,R,Dollars,6,Wholesale Trade Survey - WTS,Industry by variable - (ANZSIC06) - Subannual Financial Collection,Basic material wholesaling,Sales (operating income),Current prices,Seasonally adjusted,
WTSQ.SFA1CS,2006.03,3336.623,25329,,R,Dollars,6,Wholesale Trade Survey - WTS,Industry by variable - (ANZSIC06) - Subannual Financial Collection,Basic material wholesaling,Sales (operating income),Current prices,Seasonally adjusted,
WTSQ.SFA1CS,2006.06,3365.81,6552,,R,Dollars,6,Wholesale Trade Survey - WTS,Industry by variable - (ANZSIC06) - Subannual Financial Collection,Basic material wholesaling,Sales (operating income),Current prices,Seasonally adjusted,
WTSQ.SFA1CS,2006.09,3614.913,14721,,R,Dollars,6,Wholesale Trade Survey - WTS,Industry by variable - (ANZSIC06) - Subannual Financial Collection,Basic material wholesaling,Sales (operating income),Current prices,Seasonally adjusted,
WTSQ.SFA1CS,2006.12,3517.343,34791,,R,Dollars,6,Wholesale Trade Survey - WTS,Industry by variable - (ANZSIC06) - Subannual Financial Collection,Basic material wholesaling,Sales (operating income),Current prices,Seasonally adjusted,
WTSQ.SFA1CS,2007.03,3605.296,20366,,R,Dollars,6,Wholesale Trade Survey - WTS,Industry by variable - (ANZSIC06) - Subannual Financial Collection,Basic material wholesaling,Sales (operating income),Current prices,Seasonally adjusted,
WTSQ.SFA1CS,2007.06,3650.914,18743,,R,Dollars,6,Wholesale Trade Survey - WTS,Industry by variable - (ANZSIC06) - Subannual Financial Collection,Basic material wholesaling,Sales (operating income),Current prices,Seasonally adjusted,
WTSQ.SFA1CS,2007.09,3716.534,1532,,R,Dollars,6,Wholesale Trade Survey - WTS,Industry by variable - (ANZSIC06) - Subannual Financial Collection,Basic material wholesaling,Sales (operating income),Current prices,Seasonally adjusted,
WTSQ.SFA1CS,2007.12,3881.089,31649,,R,Dollars,6,Wholesale Trade Survey - WTS,Industry by variable - (ANZSIC06) - Subannual Financial Collection,Basic material wholesaling,Sales (operating income),Current prices,Seasonally adjusted,
WTSQ.SFA1CS,2008.03,4064.637,11170,,R,Dollars,6,Wholesale Trade Survey - WTS,Industry by variable - (ANZSIC06) - Subannual Financial Collection,Basic material wholesaling,Sales (operating income),Current prices,Seasonally adjusted,
WTSQ.SFA1CS,2008.06,4265.047,5347,,R,Dollars,6,Wholesale Trade Survey - WTS,Industry by variable - (ANZSIC06) - Subannual Financial Collection,Basic material wholesaling,Sales (operating income),Current prices,Seasonally adjusted,
WTSQ.SFA1CS,2008.09,4257.837,14989,,R,Dollars,6,Wholesale Trade Survey - WTS,Industry by variable - (ANZSIC06) - Subannual Financial Collection,Basic material wholesaling,Sales (operating income),Current prices,Seasonally adjusted,
WTSQ.SFA1CS,2008.12,4101.906,20722,,R,Dollars,6,Wholesale Trade Survey - WTS,Industry by variable - (ANZSIC06) - Subannual Financial Collection,Basic material wholesaling,Sales (operating income),Current prices,Seasonally adjusted,
WTSQ.SFA1CS,2009.03,3717.216,8368,,R,Dollars,6,Wholesale Trade Survey - WTS,Industry by variable - (ANZSIC06) - Subannual Financial Collection,Basic material wholesaling,Sales (operating income),Current prices,Seasonally adjusted,
WTSQ.SFA1CS,2009.06,3567.957,2545,,R,Dollars,6,Wholesale Trade Survey - WTS,Industry by variable - (ANZSIC06) - Subannual Financial Collection,Basic material wholesaling,Sales (operating income),Current prices,Seasonally adjusted,
WTSQ.SFA1CS,2009.09,3616.138,6819,,R,Dollars,6,Wholesale Trade Survey - WTS,Industry by variable - (ANZSIC06) - Subannual Financial Collection,Basic material wholesaling,Sales (operating income),Current prices,Seasonally adjusted,
WTSQ.SFA1CS,2009.12,3641.682,33533,,R,Dollars,6,Wholesale Trade Survey - WTS,Industry by variable - (ANZSIC06) - Subannual Financial Collection,Basic material wholesaling,Sales (operating income),Current prices,Seasonally adjusted,
WTSQ.SFA1CS,2010.03,3717.37,27835,,R,Dollars,6,Wholesale Trade Survey - WTS,Industry by variable - (ANZSIC06) - Subannual Financial Collection,Basic material wholesaling,Sales (operating income),Current prices,Seasonally adjusted,
WTSQ.SFA1CS,2010.06,3949.436,4422,,R,Dollars,6,Wholesale Trade Survey - WTS,Industry by variable - (ANZSIC06) - Subannual Financial Collection,Basic material wholesaling,Sales (operating income),Current prices,Seasonally adjusted,
WTSQ.SFA1CS,2010.09,4110.208,11281,,R,Dollars,6,Wholesale Trade Survey - WTS,Industry by variable - (ANZSIC06) - Subannual Financial Collection,Basic material wholesaling,Sales (operating income),Current prices,Seasonally adjusted,
WTSQ.SFA1CS,2010.12,4373.268,31992,,R,Dollars,6,Wholesale Trade Survey - WTS,Industry by variable - (ANZSIC06) - Subannual Financial Collection,Basic material wholesaling,Sales (operating income),Current prices,Seasonally adjusted,
WTSQ.SFA1CS,2011.03,4613.712,22405,,R,Dollars,6,Wholesale Trade Survey - WTS,Industry by variable - (ANZSIC06) - Subannual Financial Collection,Basic material wholesaling,Sales (operating income),Current prices,Seasonally adjusted,
WTSQ.SFA1CS,2011.06,4646.674,16039,,R,Dollars,6,Wholesale Trade Survey - WTS,Industry by variable - (ANZSIC06) - Subannual Financial Collection,Basic material wholesaling,Sales (operating income),Current prices,Seasonally adjusted,
WTSQ.SFA1CS,2011.09,4779.89,32907,,R,Dollars,6,Wholesale Trade Survey - WTS,Industry by variable - (ANZSIC06) - Subannual Financial Collection,Basic material wholesaling,Sales (operating income),Current prices,Seasonally adjusted,
WTSQ.SFA1CS,2011.12,4740.695,13089,,R,Dollars,6,Wholesale Trade Survey - WTS,Industry by variable - (ANZSIC06) - Subannual Financial Collection,Basic material wholesaling,Sales (operating income),Current prices,Seasonally adjusted,
WTSQ.SFA1CS,2012.03,4769.868,21857,,R,Dollars,6,Wholesale Trade Survey - WTS,Industry by variable - (ANZSIC06) - Subannual Financial Collection,Basic material wholesaling,Sales (operating income),Current prices,Seasonally adjusted,
WTSQ.SFA1CS,2012.06,4808.85,3831,,R,Dollars,6,Wholesale Trade Survey - WTS,Industry by variable - (ANZSIC06) - Subannual Financial Collection,Basic material wholesaling,Sales (operating income),Current prices,Seasonally adjusted,
WTSQ.SFA1CS,2012.09,4629.939,27480,,R,Dollars,6,Wholesale Trade Survey - WTS,Industry by variable - (ANZSIC06) - Subannual Financial Collection,Basic material wholesaling,Sales (operating income),Current prices,Seasonally adjusted,
WTSQ.SFA1CS,2012.12,4760.134,27368,,R,Dollars,6,Wholesale Trade Survey - WTS,Industry by variable - (ANZSIC06) - Subannual Financial Collection,Basic material wholesaling,Sales (operating income),Current prices,Seasonally adjusted,
WTSQ.SFA1CS,2013.03,4703.324,26698,,R,Dollars,6,Wholesale Trade Survey - WTS,Industry by variable - (ANZSIC06) - Subannual Financial Collection,Basic material wholesaling,Sales (operating income),Current prices,Seasonally adjusted,
WTSQ.SFA1CS,2013.06,4660.514,18505,,R,Dollars,6,Wholesale Trade Survey - WTS,Industry by variable - (ANZSIC06) - Subannual Financial Collection,Basic material wholesaling,Sales (operating income),Current prices,Seasonally adjusted,
WTSQ.SFA1CS,2013.09,4705.185,9266,,R,Dollars,6,Wholesale Trade Survey - WTS,Industry by variable - (ANZSIC06) - Subannual Financial Collection,Basic material wholesaling,Sales (operating income),Current prices,Seasonally adjusted,
WTSQ.SFA1CS,2013.12,4880.936,29857,,R,Dollars,6,Wholesale Trade Survey - WTS,Industry by variable - (ANZSIC06) - Subannual Financial Collection,Basic material wholesaling,Sales (operating income),Current prices,Seasonally adjusted,
WTSQ.SFA1CS,2014.03,5162.395,30266,,R,Dollars,6,Wholesale Trade Survey - WTS,Industry by variable - (ANZSIC06) - Subannual Financial Collection,Basic material wholesaling,Sales (operating income),Current prices,Seasonally adjusted,
WTSQ.SFA1CS,2014.06,5218.298,33140,,R,Dollars,6,Wholesale Trade Survey - WTS,Industry by variable - (ANZSIC06) - Subannual Financial Collection,Basic material wholesaling,Sales (operating income),Current prices,Seasonally adjusted,
WTSQ.SFA1CS,2014.09,5134.336,5243,,R,Dollars,6,Wholesale Trade Survey - WTS,Industry by variable - (ANZSIC06) - Subannual Financial Collection,Basic material wholesaling,Sales (operating income),Current prices,Seasonally adjusted,
WTSQ.SFA1CS,2014.12,5184.459,21172,,R,Dollars,6,Wholesale Trade Survey - WTS,Industry by variable - (ANZSIC06) - Subannual Financial Collection,Basic material wholesaling,Sales (operating income),Current prices,Seasonally adjusted,
WTSQ.SFA1CS,2015.03,5083.367,14610,,R,Dollars,6,Wholesale Trade Survey - WTS,Industry by variable - (ANZSIC06) - Subannual Financial Collection,Basic material wholesaling,Sales (operating income),Current prices,Seasonally adjusted,
WTSQ.SFA1CS,2015.06,5005.275,30865,,R,Dollars,6,Wholesale Trade Survey - WTS,Industry by variable - (ANZSIC06) - Subannual Financial Collection,Basic material wholesaling,Sales (operating income),Current prices,Seasonally adjusted,
WTSQ.SFA1CS,2015.09,5090.477,909,,R,Dollars,6,Wholesale Trade Survey - WTS,Industry by variable - (ANZSIC06) - Subannual Financial Collection,Basic material wholesaling,Sales (operating income),Current prices,Seasonally adjusted,
WTSQ.SFA1CS,2015.12,4980.526,8553,,R,Dollars,6,Wholesale Trade Survey - WTS,Industry by variable - (ANZSIC06) - Subannual Financial Collection,Basic material wholesaling,Sales (operating income),Current prices,Seasonally adjusted,
WTSQ.SFA1CS,2016.03,4857.295,2713,,R,Dollars,6,Wholesale Trade Survey - WTS,Industry by variable - (ANZSIC06) - Subannual Financial Collection,Basic material wholesaling,Sales (operating income),Current prices,Seasonally adjusted,
WTSQ.SFA1CS,2016.06,4934.066,22672,,R,Dollars,6,Wholesale Trade Survey - WTS,Industry by variable - (ANZSIC06) - Subannual Financial Collection,Basic material wholesaling,Sales (operating income),Current prices,Seasonally adjusted,
WTSQ.SFA1CS,2016.09,4991.586,6664,,R,Dollars,6,Wholesale Trade Survey - WTS,Industry by variable - (ANZSIC06) - Subannual Financial Collection,Basic material wholesaling,Sales (operating income),Current prices,Seasonally adjusted,
WTSQ.SFA1CS,2016.12,5041.308,10158,,R,Dollars,6,Wholesale Trade Survey - WTS,Industry by variable - (ANZSIC06) - Subannual Financial Collection,Basic material wholesaling,Sales (operating income),Current prices,Seasonally adjusted,
WTSQ.SFA1CS,2017.03,5266.125,24526,,R,Dollars,6,Wholesale Trade Survey - WTS,Industry by variable - (ANZSIC06) - Subannual Financial Collection,Basic material wholesaling,Sales (operating income),Current prices,Seasonally adjusted,
WTSQ.SFA1CS,2017.06,5402.084,24952,,R,Dollars,6,Wholesale Trade Survey - WTS,Industry by variable - (ANZSIC06) - Subannual Financial Collection,Basic material wholesaling,Sales (operating income),Current prices,Seasonally adjusted,
WTSQ.SFA1CS,2017.09,5594.187,12328,,R,Dollars,6,Wholesale Trade Survey - WTS,Industry by variable - (ANZSIC06) - Subannual Financial Collection,Basic material wholesaling,Sales (operating income),Current prices,Seasonally adjusted,
WTSQ.SFA1CS,2017.12,5994.191,27682,,R,Dollars,6,Wholesale Trade Survey - WTS,Industry by variable - (ANZSIC06) - Subannual Financial Collection,Basic material wholesaling,Sales (operating income),Current prices,Seasonally adjusted,
WTSQ.SFA1CS,2018.03,5881.255,23586,,R,Dollars,6,Wholesale Trade Survey - WTS,Industry by variable - (ANZSIC06) - Subannual Financial Collection,Basic material wholesaling,Sales (operating income),Current prices,Seasonally adjusted,
WTSQ.SFA1CS,2018.06,6020.198,3971,,R,Dollars,6,Wholesale Trade Survey - WTS,Industry by variable - (ANZSIC06) - Subannual Financial Collection,Basic material wholesaling,Sales (operating income),Current prices,Seasonally adjusted,
WTSQ.SFA1CS,2018.09,6270.692,34628,,R,Dollars,6,Wholesale Trade Survey - WTS,Industry by variable - (ANZSIC06) - Subannual Financial Collection,Basic material wholesaling,Sales (operating income),Current prices,Seasonally adjusted,
WTSQ.SFA1CS,2018.12,6296.914,13843,,R,Dollars,6,Wholesale Trade Survey - WTS,Industry by variable - (ANZSIC06) - Subannual Financial Collection,Basic material wholesaling,Sales (operating income),Current prices,Seasonally adjusted,
WTSQ.SFA1CS,2019.03,6341.421,32553,,R,Dollars,6,Wholesale Trade Survey - WTS,Industry by variable - (ANZSIC06) - Subannual Financial Collection,Basic material wholesaling,Sales (operating income),Current prices,Seasonally adjusted,
WTSQ.SFA1CS,2019.06,6337.687,33457,,R,Dollars,6,Wholesale Trade Survey - WTS,Industry by variable - (ANZSIC06) - Subannual Financial Collection,Basic material wholesaling,Sales (operating income),Current prices,Seasonally adjusted,
WTSQ.SFA1CS,2019.09,6268.309,11604,,R,Dollars,6,Wholesale Trade Survey - WTS,Industry by variable - (ANZSIC06) - Subannual Financial Collection,Basic material wholesaling,Sales (operating income),Current prices,Seasonally adjusted,
WTSQ.SFA1CS,2019.12,6370.152,2496,,R,Dollars,6,Wholesale Trade Survey - WTS,Industry by variable - (ANZSIC06) - Subannual Financial Collection,Basic material wholesaling,Sales (operating income),Current prices,Seasonally adjusted,
WTSQ.SFA1CS,2020.03,6319.343,12217,,R,Dollars,6,Wholesale Trade Survey - WTS,Industry by variable - (ANZSIC06) - Subannual Financial Collection,Basic material wholesaling,Sales (operating income),Current prices,Seasonally adjusted,
WTSQ.SFA1CS,2020.06,5329.002,2483,,R,Dollars,6,Wholesale Trade Survey - WTS,Industry by variable - (ANZSIC06) - Subannual Financial Collection,Basic material wholesaling,Sales (operating income),Current prices,Seasonally adjusted,
WTSQ.SFA1CS,2020.09,6446.807,28407,,R,Dollars,6,Wholesale Trade Survey - WTS,Industry by variable - (ANZSIC06) - Subannual Financial Collection,Basic material wholesaling,Sales (operating income),Current prices,Seasonally adjusted,
WTSQ.SFA1CS,2020.12,6473.267,30269,,R,Dollars,6,Wholesale Trade Survey - WTS,Industry by variable - (ANZSIC06) - Subannual Financial Collection,Basic material wholesaling,Sales (operating income),Current prices,Seasonally adjusted,
WTSQ.SFA1CS,2021.03,6815.447,13918,,R,Dollars,6,Wholesale Trade Survey - WTS,Industry by variable - (ANZSIC06) - Subannual Financial Collection,Basic material wholesaling,Sales (operating income),Current prices,Seasonally adjusted,
WTSQ.SFA1CS,2021.06,7237.528,27471,,R,Dollars,6,Wholesale Trade Survey - WTS,Industry by variable - (ANZSIC06) - Subannual Financial Collection,Basic material wholesaling,Sales (operating income),Current prices,Seasonally adjusted,
WTSQ.SFA1CS,2021.09,7279.779,2503,,R,Dollars,6,Wholesale Trade Survey - WTS,Industry by variable - (ANZSIC06) - Subannual Financial Collection,Basic material wholesaling,Sales (operating income),Current prices,Seasonally adjusted,
WTSQ.SFA1CS,2021.12,8380.079,1956,,F,Dollars,6,Wholesale Trade Survey - WTS,Industry by variable - (ANZSIC06) - Subannual Financial Collection,Basic material wholesaling,Sales (operating income),Current prices,Seasonally adjusted,
WTSQ.SFA1CT,1995.03,2349.769,6777,,R,Dollars,6,Wholesale Trade Survey - WTS,Industry by variable - (ANZSIC06) - Subannual Financial Collection,Basic material wholesaling,Sales (operating income),Current prices,Trend,
WTSQ.SFA1CT,1995.06,2204.458,24686,,R,Dollars,6,Wholesale Trade Survey - WTS,Industry by variable - (ANZSIC06) - Subannual Financial Collection,Basic material wholesaling,Sales (operating income),Current prices,Trend,
WTSQ.SFA1CT,1995.09,2125.637,2092,,R,Dollars,6,Wholesale Trade Survey - WTS,Industry by variable - (ANZSIC06) - Subannual Financial Collection,Basic material wholesaling,Sales (operating income),Current prices,Trend,
WTSQ.SFA1CT,1995.12,2145.656,28736,,R,Dollars,6,Wholesale Trade Survey - WTS,Industry by variable - (ANZSIC06) - Subannual Financial Collection,Basic material wholesaling,Sales (operating income),Current prices,Trend,
WTSQ.SFA1CT,1996.03,2138.142,5550,,R,Dollars,6,Wholesale Trade Survey - WTS,Industry by variable - (ANZSIC06) - Subannual Financial Collection,Basic material wholesaling,Sales (operating income),Current prices,Trend,
WTSQ.SFA1CT,1996.06,2106.144,22644,,R,Dollars,6,Wholesale Trade Survey - WTS,Industry by variable - (ANZSIC06) - Subannual Financial Collection,Basic material wholesaling,Sales (operating income),Current prices,Trend,
WTSQ.SFA1CT,1996.09,2104.14,16477,,R,Dollars,6,Wholesale Trade Survey - WTS,Industry by variable - (ANZSIC06) - Subannual Financial Collection,Basic material wholesaling,Sales (operating income),Current prices,Trend,
WTSQ.SFA1CT,1996.12,2091.293,27997,,R,Dollars,6,Wholesale Trade Survey - WTS,Industry by variable - (ANZSIC06) - Subannual Financial Collection,Basic material wholesaling,Sales (operating income),Current prices,Trend,
WTSQ.SFA1CT,1997.03,2057.284,27899,,R,Dollars,6,Wholesale Trade Survey - WTS,Industry by variable - (ANZSIC06) - Subannual Financial Collection,Basic material wholesaling,Sales (operating income),Current prices,Trend,
WTSQ.SFA1CT,1997.06,2052.981,7991,,R,Dollars,6,Wholesale Trade Survey - WTS,Industry by variable - (ANZSIC06) - Subannual Financial Collection,Basic material wholesaling,Sales (operating income),Current prices,Trend,
WTSQ.SFA1CT,1997.09,2069.643,31205,,R,Dollars,6,Wholesale Trade Survey - WTS,Industry by variable - (ANZSIC06) - Subannual Financial Collection,Basic material wholesaling,Sales (operating income),Current prices,Trend,
WTSQ.SFA1CT,1997.12,2078.187,2004,,R,Dollars,6,Wholesale Trade Survey - WTS,Industry by variable - (ANZSIC06) - Subannual Financial Collection,Basic material wholesaling,Sales (operating income),Current prices,Trend,
WTSQ.SFA1CT,1998.03,2113.087,18894,,R,Dollars,6,Wholesale Trade Survey - WTS,Industry by variable - (ANZSIC06) - Subannual Financial Collection,Basic material wholesaling,Sales (operating income),Current prices,Trend,
WTSQ.SFA1CT,1998.06,2087.846,9882,,R,Dollars,6,Wholesale Trade Survey - WTS,Industry by variable - (ANZSIC06) - Subannual Financial Collection,Basic material wholesaling,Sales (operating income),Current prices,Trend,
WTSQ.SFA1CT,1998.09,2031.373,29812,,R,Dollars,6,Wholesale Trade Survey - WTS,Industry by variable - (ANZSIC06) - Subannual Financial Collection,Basic material wholesaling,Sales (operating income),Current prices,Trend,
WTSQ.SFA1CT,1998.12,2035.754,10342,,R,Dollars,6,Wholesale Trade Survey - WTS,Industry by variable - (ANZSIC06) - Subannual Financial Collection,Basic material wholesaling,Sales (operating income),Current prices,Trend,
WTSQ.SFA1CT,1999.03,2079.073,15241,,R,Dollars,6,Wholesale Trade Survey - WTS,Industry by variable - (ANZSIC06) - Subannual Financial Collection,Basic material wholesaling,Sales (operating income),Current prices,Trend,
WTSQ.SFA1CT,1999.06,2144.42,27327,,R,Dollars,6,Wholesale Trade Survey - WTS,Industry by variable - (ANZSIC06) - Subannual Financial Collection,Basic material wholesaling,Sales (operating income),Current prices,Trend,
WTSQ.SFA1CT,1999.09,2188.222,11770,,R,Dollars,6,Wholesale Trade Survey - WTS,Industry by variable - (ANZSIC06) - Subannual Financial Collection,Basic material wholesaling,Sales (operating income),Current prices,Trend,
WTSQ.SFA1CT,1999.12,2211.275,16937,,R,Dollars,6,Wholesale Trade Survey - WTS,Industry by variable - (ANZSIC06) - Subannual Financial Collection,Basic material wholesaling,Sales (operating income),Current prices,Trend,
WTSQ.SFA1CT,2000.03,2251.633,17218,,R,Dollars,6,Wholesale Trade Survey - WTS,Industry by variable - (ANZSIC06) - Subannual Financial Collection,Basic material wholesaling,Sales (operating income),Current prices,Trend,
WTSQ.SFA1CT,2000.06,2303.803,4280,,R,Dollars,6,Wholesale Trade Survey - WTS,Industry by variable - (ANZSIC06) - Subannual Financial Collection,Basic material wholesaling,Sales (operating income),Current prices,Trend,
WTSQ.SFA1CT,2000.09,2399.827,12904,,R,Dollars,6,Wholesale Trade Survey - WTS,Industry by variable - (ANZSIC06) - Subannual Financial Collection,Basic material wholesaling,Sales (operating income),Current prices,Trend,
WTSQ.SFA1CT,2000.12,2513.264,4716,,R,Dollars,6,Wholesale Trade Survey - WTS,Industry by variable - (ANZSIC06) - Subannual Financial Collection,Basic material wholesaling,Sales (operating income),Current prices,Trend,
WTSQ.SFA1CT,2001.03,2593.913,4049,,R,Dollars,6,Wholesale Trade Survey - WTS,Industry by variable - (ANZSIC06) - Subannual Financial Collection,Basic material wholesaling,Sales (operating income),Current prices,Trend,
WTSQ.SFA1CT,2001.06,2652.653,21637,,R,Dollars,6,Wholesale Trade Survey - WTS,Industry by variable - (ANZSIC06) - Subannual Financial Collection,Basic material wholesaling,Sales (operating income),Current prices,Trend,
WTSQ.SFA1CT,2001.09,2666.66,11154,,R,Dollars,6,Wholesale Trade Survey - WTS,Industry by variable - (ANZSIC06) - Subannual Financial Collection,Basic material wholesaling,Sales (operating income),Current prices,Trend,
WTSQ.SFA1CT,2001.12,2657.537,6937,,R,Dollars,6,Wholesale Trade Survey - WTS,Industry by variable - (ANZSIC06) - Subannual Financial Collection,Basic material wholesaling,Sales (operating income),Current prices,Trend,
WTSQ.SFA1CT,2002.03,2702.111,8867,,R,Dollars,6,Wholesale Trade Survey - WTS,Industry by variable - (ANZSIC06) - Subannual Financial Collection,Basic material wholesaling,Sales (operating income),Current prices,Trend,
WTSQ.SFA1CT,2002.06,2740.088,18540,,R,Dollars,6,Wholesale Trade Survey - WTS,Industry by variable - (ANZSIC06) - Subannual Financial Collection,Basic material wholesaling,Sales (operating income),Current prices,Trend,
WTSQ.SFA1CT,2002.09,2721.064,10607,,R,Dollars,6,Wholesale Trade Survey - WTS,Industry by variable - (ANZSIC06) - Subannual Financial Collection,Basic material wholesaling,Sales (operating income),Current prices,Trend,
WTSQ.SFA1CT,2002.12,2700.889,16019,,R,Dollars,6,Wholesale Trade Survey - WTS,Industry by variable - (ANZSIC06) - Subannual Financial Collection,Basic material wholesaling,Sales (operating income),Current prices,Trend,
WTSQ.SFA1CT,2003.03,2641.768,23084,,R,Dollars,6,Wholesale Trade Survey - WTS,Industry by variable - (ANZSIC06) - Subannual Financial Collection,Basic material wholesaling,Sales (operating income),Current prices,Trend,
WTSQ.SFA1CT,2003.06,2585.946,5318,,R,Dollars,6,Wholesale Trade Survey - WTS,Industry by variable - (ANZSIC06) - Subannual Financial Collection,Basic material wholesaling,Sales (operating income),Current prices,Trend,
WTSQ.SFA1CT,2003.09,2592.184,33185,,R,Dollars,6,Wholesale Trade Survey - WTS,Industry by variable - (ANZSIC06) - Subannual Financial Collection,Basic material wholesaling,Sales (operating income),Current prices,Trend,
WTSQ.SFA1CT,2003.12,2639.295,5690,,R,Dollars,6,Wholesale Trade Survey - WTS,Industry by variable - (ANZSIC06) - Subannual Financial Collection,Basic material wholesaling,Sales (operating income),Current prices,Trend,
WTSQ.SFA1CT,2004.03,2719.146,29985,,R,Dollars,6,Wholesale Trade Survey - WTS,Industry by variable - (ANZSIC06) - Subannual Financial Collection,Basic material wholesaling,Sales (operating income),Current prices,Trend,
WTSQ.SFA1CT,2004.06,2834.667,9269,,R,Dollars,6,Wholesale Trade Survey - WTS,Industry by variable - (ANZSIC06) - Subannual Financial Collection,Basic material wholesaling,Sales (operating income),Current prices,Trend,
WTSQ.SFA1CT,2004.09,2936.229,7598,,R,Dollars,6,Wholesale Trade Survey - WTS,Industry by variable - (ANZSIC06) - Subannual Financial Collection,Basic material wholesaling,Sales (operating income),Current prices,Trend,
WTSQ.SFA1CT,2004.12,2967.52,17167,,R,Dollars,6,Wholesale Trade Survey - WTS,Industry by variable - (ANZSIC06) - Subannual Financial Collection,Basic material wholesaling,Sales (operating income),Current prices,Trend,
WTSQ.SFA1CT,2005.03,3041.826,25215,,R,Dollars,6,Wholesale Trade Survey - WTS,Industry by variable - (ANZSIC06) - Subannual Financial Collection,Basic material wholesaling,Sales (operating income),Current prices,Trend,
WTSQ.SFA1CT,2005.06,3135.95,1841,,R,Dollars,6,Wholesale Trade Survey - WTS,Industry by variable - (ANZSIC06) - Subannual Financial Collection,Basic material wholesaling,Sales (operating income),Current prices,Trend,
WTSQ.SFA1CT,2005.09,3174.658,5327,,R,Dollars,6,Wholesale Trade Survey - WTS,Industry by variable - (ANZSIC06) - Subannual Financial Collection,Basic material wholesaling,Sales (operating income),Current prices,Trend,
WTSQ.SFA1CT,2005.12,3216.752,10125,,R,Dollars,6,Wholesale Trade Survey - WTS,Industry by variable - (ANZSIC06) - Subannual Financial Collection,Basic material wholesaling,Sales (operating income),Current prices,Trend,
WTSQ.SFA1CT,2006.03,3302.062,2024,,R,Dollars,6,Wholesale Trade Survey - WTS,Industry by variable - (ANZSIC06) - Subannual Financial Collection,Basic material wholesaling,Sales (operating income),Current prices,Trend,
WTSQ.SFA1CT,2006.06,3400.131,33534,,R,Dollars,6,Wholesale Trade Survey - WTS,Industry by variable - (ANZSIC06) - Subannual Financial Collection,Basic material wholesaling,Sales (operating income),Current prices,Trend,
WTSQ.SFA1CT,2006.09,3473.281,4014,,R,Dollars,6,Wholesale Trade Survey - WTS,Industry by variable - (ANZSIC06) - Subannual Financial Collection,Basic material wholesaling,Sales (operating income),Current prices,Trend,
WTSQ.SFA1CT,2006.12,3541.152,23715,,R,Dollars,6,Wholesale Trade Survey - WTS,Industry by variable - (ANZSIC06) - Subannual Financial Collection,Basic material wholesaling,Sales (operating income),Current prices,Trend,
WTSQ.SFA1CT,2007.03,3591.988,15247,,R,Dollars,6,Wholesale Trade Survey - WTS,Industry by variable - (ANZSIC06) - Subannual Financial Collection,Basic material wholesaling,Sales (operating income),Current prices,Trend,
WTSQ.SFA1CT,2007.06,3649.695,6167,,R,Dollars,6,Wholesale Trade Survey - WTS,Industry by variable - (ANZSIC06) - Subannual Financial Collection,Basic material wholesaling,Sales (operating income),Current prices,Trend,
WTSQ.SFA1CT,2007.09,3728.2,12087,,R,Dollars,6,Wholesale Trade Survey - WTS,Industry by variable - (ANZSIC06) - Subannual Financial Collection,Basic material wholesaling,Sales (operating income),Current prices,Trend,
WTSQ.SFA1CT,2007.12,3875.376,30707,,R,Dollars,6,Wholesale Trade Survey - WTS,Industry by variable - (ANZSIC06) - Subannual Financial Collection,Basic material wholesaling,Sales (operating income),Current prices,Trend,
WTSQ.SFA1CT,2008.03,4080.964,30505,,R,Dollars,6,Wholesale Trade Survey - WTS,Industry by variable - (ANZSIC06) - Subannual Financial Collection,Basic material wholesaling,Sales (operating income),Current prices,Trend,
WTSQ.SFA1CT,2008.06,4244.24,10182,,R,Dollars,6,Wholesale Trade Survey - WTS,Industry by variable - (ANZSIC06) - Subannual Financial Collection,Basic material wholesaling,Sales (operating income),Current prices,Trend,
WTSQ.SFA1CT,2008.09,4266.248,19075,,R,Dollars,6,Wholesale Trade Survey - WTS,Industry by variable - (ANZSIC06) - Subannual Financial Collection,Basic material wholesaling,Sales (operating income),Current prices,Trend,
WTSQ.SFA1CT,2008.12,4069.106,15731,,R,Dollars,6,Wholesale Trade Survey - WTS,Industry by variable - (ANZSIC06) - Subannual Financial Collection,Basic material wholesaling,Sales (operating income),Current prices,Trend,
WTSQ.SFA1CT,2009.03,3767.729,31991,,R,Dollars,6,Wholesale Trade Survey - WTS,Industry by variable - (ANZSIC06) - Subannual Financial Collection,Basic material wholesaling,Sales (operating income),Current prices,Trend,
WTSQ.SFA1CT,2009.06,3588.488,23334,,R,Dollars,6,Wholesale Trade Survey - WTS,Industry by variable - (ANZSIC06) - Subannual Financial Collection,Basic material wholesaling,Sales (operating income),Current prices,Trend,
WTSQ.SFA1CT,2009.09,3592.844,1972,,R,Dollars,6,Wholesale Trade Survey - WTS,Industry by variable - (ANZSIC06) - Subannual Financial Collection,Basic material wholesaling,Sales (operating income),Current prices,Trend,
WTSQ.SFA1CT,2009.12,3639.226,26245,,R,Dollars,6,Wholesale Trade Survey - WTS,Industry by variable - (ANZSIC06) - Subannual Financial Collection,Basic material wholesaling,Sales (operating income),Current prices,Trend,
WTSQ.SFA1CT,2010.03,3741.888,14991,,R,Dollars,6,Wholesale Trade Survey - WTS,Industry by variable - (ANZSIC06) - Subannual Financial Collection,Basic material wholesaling,Sales (operating income),Current prices,Trend,
WTSQ.SFA1CT,2010.06,3919.973,27840,,R,Dollars,6,Wholesale Trade Survey - WTS,Industry by variable - (ANZSIC06) - Subannual Financial Collection,Basic material wholesaling,Sales (operating income),Current prices,Trend,
WTSQ.SFA1CT,2010.09,4132.125,20212,,R,Dollars,6,Wholesale Trade Survey - WTS,Industry by variable - (ANZSIC06) - Subannual Financial Collection,Basic material wholesaling,Sales (operating income),Current prices,Trend,
WTSQ.SFA1CT,2010.12,4377.671,4741,,R,Dollars,6,Wholesale Trade Survey - WTS,Industry by variable - (ANZSIC06) - Subannual Financial Collection,Basic material wholesaling,Sales (operating income),Current prices,Trend,
WTSQ.SFA1CT,2011.03,4577.542,27758,,R,Dollars,6,Wholesale Trade Survey - WTS,Industry by variable - (ANZSIC06) - Subannual Financial Collection,Basic material wholesaling,Sales (operating income),Current prices,Trend,
WTSQ.SFA1CT,2011.06,4689.291,20348,,R,Dollars,6,Wholesale Trade Survey - WTS,Industry by variable - (ANZSIC06) - Subannual Financial Collection,Basic material wholesaling,Sales (operating income),Current prices,Trend,
WTSQ.SFA1CT,2011.09,4742.189,2158,,R,Dollars,6,Wholesale Trade Survey - WTS,Industry by variable - (ANZSIC06) - Subannual Financial Collection,Basic material wholesaling,Sales (operating income),Current prices,Trend,
WTSQ.SFA1CT,2011.12,4762.674,11708,,R,Dollars,6,Wholesale Trade Survey - WTS,Industry by variable - (ANZSIC06) - Subannual Financial Collection,Basic material wholesaling,Sales (operating income),Current prices,Trend,
WTSQ.SFA1CT,2012.03,4773.449,1735,,R,Dollars,6,Wholesale Trade Survey - WTS,Industry by variable - (ANZSIC06) - Subannual Financial Collection,Basic material wholesaling,Sales (operating income),Current prices,Trend,
WTSQ.SFA1CT,2012.06,4788.789,11582,,R,Dollars,6,Wholesale Trade Survey - WTS,Industry by variable - (ANZSIC06) - Subannual Financial Collection,Basic material wholesaling,Sales (operating income),Current prices,Trend,
WTSQ.SFA1CT,2012.09,4772.404,21212,,R,Dollars,6,Wholesale Trade Survey - WTS,Industry by variable - (ANZSIC06) - Subannual Financial Collection,Basic material wholesaling,Sales (operating income),Current prices,Trend,
WTSQ.SFA1CT,2012.12,4744.302,9861,,R,Dollars,6,Wholesale Trade Survey - WTS,Industry by variable - (ANZSIC06) - Subannual Financial Collection,Basic material wholesaling,Sales (operating income),Current prices,Trend,
WTSQ.SFA1CT,2013.03,4703.849,29741,,R,Dollars,6,Wholesale Trade Survey - WTS,Industry by variable - (ANZSIC06) - Subannual Financial Collection,Basic material wholesaling,Sales (operating income),Current prices,Trend,
WTSQ.SFA1CT,2013.06,4662.708,26651,,R,Dollars,6,Wholesale Trade Survey - WTS,Industry by variable - (ANZSIC06) - Subannual Financial Collection,Basic material wholesaling,Sales (operating income),Current prices,Trend,
WTSQ.SFA1CT,2013.09,4710.25,10939,,R,Dollars,6,Wholesale Trade Survey - WTS,Industry by variable - (ANZSIC06) - Subannual Financial Collection,Basic material wholesaling,Sales (operating income),Current prices,Trend,
WTSQ.SFA1CT,2013.12,4903.397,33182,,R,Dollars,6,Wholesale Trade Survey - WTS,Industry by variable - (ANZSIC06) - Subannual Financial Collection,Basic material wholesaling,Sales (operating income),Current prices,Trend,
WTSQ.SFA1CT,2014.03,5131.779,4854,,R,Dollars,6,Wholesale Trade Survey - WTS,Industry by variable - (ANZSIC06) - Subannual Financial Collection,Basic material wholesaling,Sales (operating income),Current prices,Trend,
WTSQ.SFA1CT,2014.06,5204.475,15720,,R,Dollars,6,Wholesale Trade Survey - WTS,Industry by variable - (ANZSIC06) - Subannual Financial Collection,Basic material wholesaling,Sales (operating income),Current prices,Trend,
WTSQ.SFA1CT,2014.09,5175.4,7428,,R,Dollars,6,Wholesale Trade Survey - WTS,Industry by variable - (ANZSIC06) - Subannual Financial Collection,Basic material wholesaling,Sales (operating income),Current prices,Trend,
WTSQ.SFA1CT,2014.12,5150.718,20894,,R,Dollars,6,Wholesale Trade Survey - WTS,Industry by variable - (ANZSIC06) - Subannual Financial Collection,Basic material wholesaling,Sales (operating income),Current prices,Trend,
WTSQ.SFA1CT,2015.03,5085.858,30338,,R,Dollars,6,Wholesale Trade Survey - WTS,Industry by variable - (ANZSIC06) - Subannual Financial Collection,Basic material wholesaling,Sales (operating income),Current prices,Trend,
WTSQ.SFA1CT,2015.06,5041.896,31316,,R,Dollars,6,Wholesale Trade Survey - WTS,Industry by variable - (ANZSIC06) - Subannual Financial Collection,Basic material wholesaling,Sales (operating income),Current prices,Trend,
WTSQ.SFA1CT,2015.09,5050.803,17343,,R,Dollars,6,Wholesale Trade Survey - WTS,Industry by variable - (ANZSIC06) - Subannual Financial Collection,Basic material wholesaling,Sales (operating income),Current prices,Trend,
WTSQ.SFA1CT,2015.12,4978.22,6927,,R,Dollars,6,Wholesale Trade Survey - WTS,Industry by variable - (ANZSIC06) - Subannual Financial Collection,Basic material wholesaling,Sales (operating income),Current prices,Trend,
WTSQ.SFA1CT,2016.03,4889.055,10421,,R,Dollars,6,Wholesale Trade Survey - WTS,Industry by variable - (ANZSIC06) - Subannual Financial Collection,Basic material wholesaling,Sales (operating income),Current prices,Trend,
WTSQ.SFA1CT,2016.06,4917.126,18471,,R,Dollars,6,Wholesale Trade Survey - WTS,Industry by variable - (ANZSIC06) - Subannual Financial Collection,Basic material wholesaling,Sales (operating income),Current prices,Trend,
WTSQ.SFA1CT,2016.09,4978.998,13122,,R,Dollars,6,Wholesale Trade Survey - WTS,Industry by variable - (ANZSIC06) - Subannual Financial Collection,Basic material wholesaling,Sales (operating income),Current prices,Trend,
WTSQ.SFA1CT,2016.12,5074.118,10645,,R,Dollars,6,Wholesale Trade Survey - WTS,Industry by variable - (ANZSIC06) - Subannual Financial Collection,Basic material wholesaling,Sales (operating income),Current prices,Trend,
WTSQ.SFA1CT,2017.03,5236.097,22616,,R,Dollars,6,Wholesale Trade Survey - WTS,Industry by variable - (ANZSIC06) - Subannual Financial Collection,Basic material wholesaling,Sales (operating income),Current prices,Trend,
WTSQ.SFA1CT,2017.06,5414.686,9856,,R,Dollars,6,Wholesale Trade Survey - WTS,Industry by variable - (ANZSIC06) - Subannual Financial Collection,Basic material wholesaling,Sales (operating income),Current prices,Trend,
WTSQ.SFA1CT,2017.09,5605.866,25529,,R,Dollars,6,Wholesale Trade Survey - WTS,Industry by variable - (ANZSIC06) - Subannual Financial Collection,Basic material wholesaling,Sales (operating income),Current prices,Trend,
WTSQ.SFA1CT,2017.12,5785.308,35914,,R,Dollars,6,Wholesale Trade Survey - WTS,Industry by variable - (ANZSIC06) - Subannual Financial Collection,Basic material wholesaling,Sales (operating income),Current prices,Trend,
WTSQ.SFA1CT,2018.03,5895.324,34772,,R,Dollars,6,Wholesale Trade Survey - WTS,Industry by variable - (ANZSIC06) - Subannual Financial Collection,Basic material wholesaling,Sales (operating income),Current prices,Trend,
WTSQ.SFA1CT,2018.06,6047.651,18436,,R,Dollars,6,Wholesale Trade Survey - WTS,Industry by variable - (ANZSIC06) - Subannual Financial Collection,Basic material wholesaling,Sales (operating income),Current prices,Trend,
WTSQ.SFA1CT,2018.09,6228.224,162,,R,Dollars,6,Wholesale Trade Survey - WTS,Industry by variable - (ANZSIC06) - Subannual Financial Collection,Basic material wholesaling,Sales (operating income),Current prices,Trend,
WTSQ.SFA1CT,2018.12,6319.609,32492,,R,Dollars,6,Wholesale Trade Survey - WTS,Industry by variable - (ANZSIC06) - Subannual Financial Collection,Basic material wholesaling,Sales (operating income),Current prices,Trend,
WTSQ.SFA1CT,2019.03,6337.814,14006,,R,Dollars,6,Wholesale Trade Survey - WTS,Industry by variable - (ANZSIC06) - Subannual Financial Collection,Basic material wholesaling,Sales (operating income),Current prices,Trend,
WTSQ.SFA1CT,2019.06,6319.017,1371,,R,Dollars,6,Wholesale Trade Survey - WTS,Industry by variable - (ANZSIC06) - Subannual Financial Collection,Basic material wholesaling,Sales (operating income),Current prices,Trend,
WTSQ.SFA1CT,2019.09,6309.482,17137,,R,Dollars,6,Wholesale Trade Survey - WTS,Industry by variable - (ANZSIC06) - Subannual Financial Collection,Basic material wholesaling,Sales (operating income),Current prices,Trend,
WTSQ.SFA1CT,2019.12,6329.416,33335,,R,Dollars,6,Wholesale Trade Survey - WTS,Industry by variable - (ANZSIC06) - Subannual Financial Collection,Basic material wholesaling,Sales (operating income),Current prices,Trend,
WTSQ.SFA1CT,2020.03,6341.594,10303,,R,Dollars,6,Wholesale Trade Survey - WTS,Industry by variable - (ANZSIC06) - Subannual Financial Collection,Basic material wholesaling,Sales (operating income),Current prices,Trend,
WTSQ.SFA9CA,1995.03,1097.36,12191,,F,Dollars,6,Wholesale Trade Survey - WTS,Industry by variable - (ANZSIC06) - Subannual Financial Collection,Basic material wholesaling,Total stocks,Current prices,Unadjusted,
WTSQ.SFA9CA,1995.06,1044.45,31444,,F,Dollars,6,Wholesale Trade Survey - WTS,Industry by variable - (ANZSIC06) - Subannual Financial Collection,Basic material wholesaling,Total stocks,Current prices,Unadjusted,
WTSQ.SFA9CA,1995.09,1006.85,16717,,F,Dollars,6,Wholesale Trade Survey - WTS,Industry by variable - (ANZSIC06) - Subannual Financial Collection,Basic material wholesaling,Total stocks,Current prices,Unadjusted,
WTSQ.SFA9CA,1995.12,1008.06,8186,,F,Dollars,6,Wholesale Trade Survey - WTS,Industry by variable - (ANZSIC06) - Subannual Financial Collection,Basic material wholesaling,Total stocks,Current prices,Unadjusted,
WTSQ.SFA9CA,1996.03,1040.91,3364,,F,Dollars,6,Wholesale Trade Survey - WTS,Industry by variable - (ANZSIC06) - Subannual Financial Collection,Basic material wholesaling,Total stocks,Current prices,Unadjusted,
WTSQ.SFA9CA,1996.06,1031.97,8633,,F,Dollars,6,Wholesale Trade Survey - WTS,Industry by variable - (ANZSIC06) - Subannual Financial Collection,Basic material wholesaling,Total stocks,Current prices,Unadjusted,
WTSQ.SFA9CA,1996.09,1024.49,14315,,F,Dollars,6,Wholesale Trade Survey - WTS,Industry by variable - (ANZSIC06) - Subannual Financial Collection,Basic material wholesaling,Total stocks,Current prices,Unadjusted,
WTSQ.SFA9CA,1996.12,1026.14,19522,,F,Dollars,6,Wholesale Trade Survey - WTS,Industry by variable - (ANZSIC06) - Subannual Financial Collection,Basic material wholesaling,Total stocks,Current prices,Unadjusted,
WTSQ.SFA9CA,1997.03,994.17,16981,,F,Dollars,6,Wholesale Trade Survey - WTS,Industry by variable - (ANZSIC06) - Subannual Financial Collection,Basic material wholesaling,Total stocks,Current prices,Unadjusted,
WTSQ.SFA9CA,1997.06,987.83,33891,,F,Dollars,6,Wholesale Trade Survey - WTS,Industry by variable - (ANZSIC06) - Subannual Financial Collection,Basic material wholesaling,Total stocks,Current prices,Unadjusted,
WTSQ.SFA9CA,1997.09,1006.24,24348,,F,Dollars,6,Wholesale Trade Survey - WTS,Industry by variable - (ANZSIC06) - Subannual Financial Collection,Basic material wholesaling,Total stocks,Current prices,Unadjusted,
WTSQ.SFA9CA,1997.12,998.72,11866,,F,Dollars,6,Wholesale Trade Survey - WTS,Industry by variable - (ANZSIC06) - Subannual Financial Collection,Basic material wholesaling,Total stocks,Current prices,Unadjusted,
WTSQ.SFA9CA,1998.03,1023.32,23230,,F,Dollars,6,Wholesale Trade Survey - WTS,Industry by variable - (ANZSIC06) - Subannual Financial Collection,Basic material wholesaling,Total stocks,Current prices,Unadjusted,
WTSQ.SFA9CA,1998.06,1019.3,25815,,F,Dollars,6,Wholesale Trade Survey - WTS,Industry by variable - (ANZSIC06) - Subannual Financial Collection,Basic material wholesaling,Total stocks,Current prices,Unadjusted,
WTSQ.SFA9CA,1998.09,974.92,2587,,F,Dollars,6,Wholesale Trade Survey - WTS,Industry by variable - (ANZSIC06) - Subannual Financial Collection,Basic material wholesaling,Total stocks,Current prices,Unadjusted,
WTSQ.SFA9CA,1998.12,984.46,21135,,F,Dollars,6,Wholesale Trade Survey - WTS,Industry by variable - (ANZSIC06) - Subannual Financial Collection,Basic material wholesaling,Total stocks,Current prices,Unadjusted,
WTSQ.SFA9CA,1999.03,980.02,7881,,F,Dollars,6,Wholesale Trade Survey - WTS,Industry by variable - (ANZSIC06) - Subannual Financial Collection,Basic material wholesaling,Total stocks,Current prices,Unadjusted,
WTSQ.SFA9CA,1999.06,1027.05,9903,,F,Dollars,6,Wholesale Trade Survey - WTS,Industry by variable - (ANZSIC06) - Subannual Financial Collection,Basic material wholesaling,Total stocks,Current prices,Unadjusted,
WTSQ.SFA9CA,1999.09,1022.59,6016,,F,Dollars,6,Wholesale Trade Survey - WTS,Industry by variable - (ANZSIC06) - Subannual Financial Collection,Basic material wholesaling,Total stocks,Current prices,Unadjusted,
WTSQ.SFA9CA,1999.12,1014.03,25972,,F,Dollars,6,Wholesale Trade Survey - WTS,Industry by variable - (ANZSIC06) - Subannual Financial Collection,Basic material wholesaling,Total stocks,Current prices,Unadjusted,
WTSQ.SFA9CA,2000.03,1047.6,11011,,F,Dollars,6,Wholesale Trade Survey - WTS,Industry by variable - (ANZSIC06) - Subannual Financial Collection,Basic material wholesaling,Total stocks,Current prices,Unadjusted,
WTSQ.SFA9CA,2000.06,1033.12,29497,,F,Dollars,6,Wholesale Trade Survey - WTS,Industry by variable - (ANZSIC06) - Subannual Financial Collection,Basic material wholesaling,Total stocks,Current prices,Unadjusted,
WTSQ.SFA9CA,2000.09,1104,32651,,F,Dollars,6,Wholesale Trade Survey - WTS,Industry by variable - (ANZSIC06) - Subannual Financial Collection,Basic material wholesaling,Total stocks,Current prices,Unadjusted,
WTSQ.SFA9CA,2000.12,1089.19,7637,,F,Dollars,6,Wholesale Trade Survey - WTS,Industry by variable - (ANZSIC06) - Subannual Financial Collection,Basic material wholesaling,Total stocks,Current prices,Unadjusted,
WTSQ.SFA9CA,2001.03,1087.03,1439,,F,Dollars,6,Wholesale Trade Survey - WTS,Industry by variable - (ANZSIC06) - Subannual Financial Collection,Basic material wholesaling,Total stocks,Current prices,Unadjusted,
WTSQ.SFA9CA,2001.06,1140.27,32827,,F,Dollars,6,Wholesale Trade Survey - WTS,Industry by variable - (ANZSIC06) - Subannual Financial Collection,Basic material wholesaling,Total stocks,Current prices,Unadjusted,
WTSQ.SFA9CA,2001.09,1125.62,26443,,F,Dollars,6,Wholesale Trade Survey - WTS,Industry by variable - (ANZSIC06) - Subannual Financial Collection,Basic material wholesaling,Total stocks,Current prices,Unadjusted,
WTSQ.SFA9CA,2001.12,1143.55,4332,,F,Dollars,6,Wholesale Trade Survey - WTS,Industry by variable - (ANZSIC06) - Subannual Financial Collection,Basic material wholesaling,Total stocks,Current prices,Unadjusted,
WTSQ.SFA9CA,2002.03,1192.08,23487,,F,Dollars,6,Wholesale Trade Survey - WTS,Industry by variable - (ANZSIC06) - Subannual Financial Collection,Basic material wholesaling,Total stocks,Current prices,Unadjusted,
WTSQ.SFA9CA,2002.06,1155.38,29133,,F,Dollars,6,Wholesale Trade Survey - WTS,Industry by variable - (ANZSIC06) - Subannual Financial Collection,Basic material wholesaling,Total stocks,Current prices,Unadjusted,
WTSQ.SFA9CA,2002.09,1240.78,17665,,F,Dollars,6,Wholesale Trade Survey - WTS,Industry by variable - (ANZSIC06) - Subannual Financial Collection,Basic material wholesaling,Total stocks,Current prices,Unadjusted,
WTSQ.SFA9CA,2002.12,1175.01,12545,,F,Dollars,6,Wholesale Trade Survey - WTS,Industry by variable - (ANZSIC06) - Subannual Financial Collection,Basic material wholesaling,Total stocks,Current prices,Unadjusted,
WTSQ.SFA9CA,2003.03,1192.68,6575,,F,Dollars,6,Wholesale Trade Survey - WTS,Industry by variable - (ANZSIC06) - Subannual Financial Collection,Basic material wholesaling,Total stocks,Current prices,Unadjusted,
WTSQ.SFA9CA,2003.06,1173,14007,,F,Dollars,6,Wholesale Trade Survey - WTS,Industry by variable - (ANZSIC06) - Subannual Financial Collection,Basic material wholesaling,Total stocks,Current prices,Unadjusted,
WTSQ.SFA9CA,2003.09,1125.04,2526,,F,Dollars,6,Wholesale Trade Survey - WTS,Industry by variable - (ANZSIC06) - Subannual Financial Collection,Basic material wholesaling,Total stocks,Current prices,Unadjusted,
WTSQ.SFA9CA,2003.12,1081.36,20307,,F,Dollars,6,Wholesale Trade Survey - WTS,Industry by variable - (ANZSIC06) - Subannual Financial Collection,Basic material wholesaling,Total stocks,Current prices,Unadjusted,
WTSQ.SFA9CA,2004.03,1133.91,21344,,F,Dollars,6,Wholesale Trade Survey - WTS,Industry by variable - (ANZSIC06) - Subannual Financial Collection,Basic material wholesaling,Total stocks,Current prices,Unadjusted,
WTSQ.SFA9CA,2004.06,1190.1,35678,,F,Dollars,6,Wholesale Trade Survey - WTS,Industry by variable - (ANZSIC06) - Subannual Financial Collection,Basic material wholesaling,Total stocks,Current prices,Unadjusted,
WTSQ.SFA9CA,2004.09,1218.86,7832,,F,Dollars,6,Wholesale Trade Survey - WTS,Industry by variable - (ANZSIC06) - Subannual Financial Collection,Basic material wholesaling,Total stocks,Current prices,Unadjusted,
WTSQ.SFA9CA,2004.12,1208.91,30972,,F,Dollars,6,Wholesale Trade Survey - WTS,Industry by variable - (ANZSIC06) - Subannual Financial Collection,Basic material wholesaling,Total stocks,Current prices,Unadjusted,
WTSQ.SFA9CA,2005.03,1270.28,14455,,F,Dollars,6,Wholesale Trade Survey - WTS,Industry by variable - (ANZSIC06) - Subannual Financial Collection,Basic material wholesaling,Total stocks,Current prices,Unadjusted,
WTSQ.SFA9CA,2005.06,1318.46,24159,,F,Dollars,6,Wholesale Trade Survey - WTS,Industry by variable - (ANZSIC06) - Subannual Financial Collection,Basic material wholesaling,Total stocks,Current prices,Unadjusted,
WTSQ.SFA9CA,2005.09,1334.18,15247,,F,Dollars,6,Wholesale Trade Survey - WTS,Industry by variable - (ANZSIC06) - Subannual Financial Collection,Basic material wholesaling,Total stocks,Current prices,Unadjusted,
WTSQ.SFA9CA,2005.12,1263.83,6334,,F,Dollars,6,Wholesale Trade Survey - WTS,Industry by variable - (ANZSIC06) - Subannual Financial Collection,Basic material wholesaling,Total stocks,Current prices,Unadjusted,
WTSQ.SFA9CA,2006.03,1345.6,33666,,F,Dollars,6,Wholesale Trade Survey - WTS,Industry by variable - (ANZSIC06) - Subannual Financial Collection,Basic material wholesaling,Total stocks,Current prices,Unadjusted,
WTSQ.SFA9CA,2006.06,1385.43,14406,,F,Dollars,6,Wholesale Trade Survey - WTS,Industry by variable - (ANZSIC06) - Subannual Financial Collection,Basic material wholesaling,Total stocks,Current prices,Unadjusted,
WTSQ.SFA9CA,2006.09,1429.93,8380,,F,Dollars,6,Wholesale Trade Survey - WTS,Industry by variable - (ANZSIC06) - Subannual Financial Collection,Basic material wholesaling,Total stocks,Current prices,Unadjusted,
WTSQ.SFA9CA,2006.12,1388.59,7802,,F,Dollars,6,Wholesale Trade Survey - WTS,Industry by variable - (ANZSIC06) - Subannual Financial Collection,Basic material wholesaling,Total stocks,Current prices,Unadjusted,
WTSQ.SFA9CA,2007.03,1470.71,9665,,F,Dollars,6,Wholesale Trade Survey - WTS,Industry by variable - (ANZSIC06) - Subannual Financial Collection,Basic material wholesaling,Total stocks,Current prices,Unadjusted,
WTSQ.SFA9CA,2007.06,1500.2,33649,,F,Dollars,6,Wholesale Trade Survey - WTS,Industry by variable - (ANZSIC06) - Subannual Financial Collection,Basic material wholesaling,Total stocks,Current prices,Unadjusted,
WTSQ.SFA9CA,2007.09,1561.7,33078,,F,Dollars,6,Wholesale Trade Survey - WTS,Industry by variable - (ANZSIC06) - Subannual Financial Collection,Basic material wholesaling,Total stocks,Current prices,Unadjusted,
WTSQ.SFA9CA,2007.12,1504.37,10282,,F,Dollars,6,Wholesale Trade Survey - WTS,Industry by variable - (ANZSIC06) - Subannual Financial Collection,Basic material wholesaling,Total stocks,Current prices,Unadjusted,
WTSQ.SFA9CA,2008.03,1616.9,14068,,F,Dollars,6,Wholesale Trade Survey - WTS,Industry by variable - (ANZSIC06) - Subannual Financial Collection,Basic material wholesaling,Total stocks,Current prices,Unadjusted,
WTSQ.SFA9CA,2008.06,1704.78,32778,,F,Dollars,6,Wholesale Trade Survey - WTS,Industry by variable - (ANZSIC06) - Subannual Financial Collection,Basic material wholesaling,Total stocks,Current prices,Unadjusted,
WTSQ.SFA9CA,2008.09,1826.21,32410,,F,Dollars,6,Wholesale Trade Survey - WTS,Industry by variable - (ANZSIC06) - Subannual Financial Collection,Basic material wholesaling,Total stocks,Current prices,Unadjusted,
WTSQ.SFA9CA,2008.12,1804.97,17173,,F,Dollars,6,Wholesale Trade Survey - WTS,Industry by variable - (ANZSIC06) - Subannual Financial Collection,Basic material wholesaling,Total stocks,Current prices,Unadjusted,
WTSQ.SFA9CA,2009.03,1793.63,19687,,F,Dollars,6,Wholesale Trade Survey - WTS,Industry by variable - (ANZSIC06) - Subannual Financial Collection,Basic material wholesaling,Total stocks,Current prices,Unadjusted,
WTSQ.SFA9CA,2009.06,1718.51,5657,,F,Dollars,6,Wholesale Trade Survey - WTS,Industry by variable - (ANZSIC06) - Subannual Financial Collection,Basic material wholesaling,Total stocks,Current prices,Unadjusted,
WTSQ.SFA9CA,2009.09,1674.13,29657,,F,Dollars,6,Wholesale Trade Survey - WTS,Industry by variable - (ANZSIC06) - Subannual Financial Collection,Basic material wholesaling,Total stocks,Current prices,Unadjusted,
WTSQ.SFA9CA,2009.12,1550.49,4019,,F,Dollars,6,Wholesale Trade Survey - WTS,Industry by variable - (ANZSIC06) - Subannual Financial Collection,Basic material wholesaling,Total stocks,Current prices,Unadjusted,
WTSQ.SFA9CA,2010.03,1666.39,10961,,F,Dollars,6,Wholesale Trade Survey - WTS,Industry by variable - (ANZSIC06) - Subannual Financial Collection,Basic material wholesaling,Total stocks,Current prices,Unadjusted,
WTSQ.SFA9CA,2010.06,1553.95,12191,,F,Dollars,6,Wholesale Trade Survey - WTS,Industry by variable - (ANZSIC06) - Subannual Financial Collection,Basic material wholesaling,Total stocks,Current prices,Unadjusted,
WTSQ.SFA9CA,2010.09,1696.11,14749,,F,Dollars,6,Wholesale Trade Survey - WTS,Industry by variable - (ANZSIC06) - Subannual Financial Collection,Basic material wholesaling,Total stocks,Current prices,Unadjusted,
WTSQ.SFA9CA,2010.12,1529.73,25702,,F,Dollars,6,Wholesale Trade Survey - WTS,Industry by variable - (ANZSIC06) - Subannual Financial Collection,Basic material wholesaling,Total stocks,Current prices,Unadjusted,
WTSQ.SFA9CA,2011.03,1804.9,26722,,F,Dollars,6,Wholesale Trade Survey - WTS,Industry by variable - (ANZSIC06) - Subannual Financial Collection,Basic material wholesaling,Total stocks,Current prices,Unadjusted,
WTSQ.SFA9CA,2011.06,1743.26,10359,,F,Dollars,6,Wholesale Trade Survey - WTS,Industry by variable - (ANZSIC06) - Subannual Financial Collection,Basic material wholesaling,Total stocks,Current prices,Unadjusted,
WTSQ.SFA9CA,2011.09,1768.45,15311,,F,Dollars,6,Wholesale Trade Survey - WTS,Industry by variable - (ANZSIC06) - Subannual Financial Collection,Basic material wholesaling,Total stocks,Current prices,Unadjusted,
WTSQ.SFA9CA,2011.12,1727.14,5855,,F,Dollars,6,Wholesale Trade Survey - WTS,Industry by variable - (ANZSIC06) - Subannual Financial Collection,Basic material wholesaling,Total stocks,Current prices,Unadjusted,
WTSQ.SFA9CA,2012.03,1782.37,32071,,F,Dollars,6,Wholesale Trade Survey - WTS,Industry by variable - (ANZSIC06) - Subannual Financial Collection,Basic material wholesaling,Total stocks,Current prices,Unadjusted,
WTSQ.SFA9CA,2012.06,1860.9,34940,,F,Dollars,6,Wholesale Trade Survey - WTS,Industry by variable - (ANZSIC06) - Subannual Financial Collection,Basic material wholesaling,Total stocks,Current prices,Unadjusted,
WTSQ.SFA9CA,2012.09,1736.66,31369,,F,Dollars,6,Wholesale Trade Survey - WTS,Industry by variable - (ANZSIC06) - Subannual Financial Collection,Basic material wholesaling,Total stocks,Current prices,Unadjusted,
WTSQ.SFA9CA,2012.12,1672.47,18795,,F,Dollars,6,Wholesale Trade Survey - WTS,Industry by variable - (ANZSIC06) - Subannual Financial Collection,Basic material wholesaling,Total stocks,Current prices,Unadjusted,
WTSQ.SFA9CA,2013.03,1643.07,27001,,F,Dollars,6,Wholesale Trade Survey - WTS,Industry by variable - (ANZSIC06) - Subannual Financial Collection,Basic material wholesaling,Total stocks,Current prices,Unadjusted,
WTSQ.SFA9CA,2013.06,1675.42,26291,,F,Dollars,6,Wholesale Trade Survey - WTS,Industry by variable - (ANZSIC06) - Subannual Financial Collection,Basic material wholesaling,Total stocks,Current prices,Unadjusted,
WTSQ.SFA9CA,2013.09,1701.35,18168,,F,Dollars,6,Wholesale Trade Survey - WTS,Industry by variable - (ANZSIC06) - Subannual Financial Collection,Basic material wholesaling,Total stocks,Current prices,Unadjusted,
WTSQ.SFA9CA,2013.12,1597.8,1408,,F,Dollars,6,Wholesale Trade Survey - WTS,Industry by variable - (ANZSIC06) - Subannual Financial Collection,Basic material wholesaling,Total stocks,Current prices,Unadjusted,
WTSQ.SFA9CA,2014.03,1695.3,35392,,F,Dollars,6,Wholesale Trade Survey - WTS,Industry by variable - (ANZSIC06) - Subannual Financial Collection,Basic material wholesaling,Total stocks,Current prices,Unadjusted,
WTSQ.SFA9CA,2014.06,1783.92,8610,,F,Dollars,6,Wholesale Trade Survey - WTS,Industry by variable - (ANZSIC06) - Subannual Financial Collection,Basic material wholesaling,Total stocks,Current prices,Unadjusted,
WTSQ.SFA9CA,2014.09,1755.28,33644,,F,Dollars,6,Wholesale Trade Survey - WTS,Industry by variable - (ANZSIC06) - Subannual Financial Collection,Basic material wholesaling,Total stocks,Current prices,Unadjusted,
WTSQ.SFA9CA,2014.12,1796.05,34173,,F,Dollars,6,Wholesale Trade Survey - WTS,Industry by variable - (ANZSIC06) - Subannual Financial Collection,Basic material wholesaling,Total stocks,Current prices,Unadjusted,
WTSQ.SFA9CA,2015.03,1808.96,2019,,F,Dollars,6,Wholesale Trade Survey - WTS,Industry by variable - (ANZSIC06) - Subannual Financial Collection,Basic material wholesaling,Total stocks,Current prices,Unadjusted,
WTSQ.SFA9CA,2015.06,1786.37,35583,,F,Dollars,6,Wholesale Trade Survey - WTS,Industry by variable - (ANZSIC06) - Subannual Financial Collection,Basic material wholesaling,Total stocks,Current prices,Unadjusted,
WTSQ.SFA9CA,2015.09,1887.727,6464,,F,Dollars,6,Wholesale Trade Survey - WTS,Industry by variable - (ANZSIC06) - Subannual Financial Collection,Basic material wholesaling,Total stocks,Current prices,Unadjusted,
WTSQ.SFA9CA,2015.12,1819.718,33235,,F,Dollars,6,Wholesale Trade Survey - WTS,Industry by variable - (ANZSIC06) - Subannual Financial Collection,Basic material wholesaling,Total stocks,Current prices,Unadjusted,
WTSQ.SFA9CA,2016.03,1894.792,25132,,F,Dollars,6,Wholesale Trade Survey - WTS,Industry by variable - (ANZSIC06) - Subannual Financial Collection,Basic material wholesaling,Total stocks,Current prices,Unadjusted,
WTSQ.SFA9CA,2016.06,1849.541,17909,,F,Dollars,6,Wholesale Trade Survey - WTS,Industry by variable - (ANZSIC06) - Subannual Financial Collection,Basic material wholesaling,Total stocks,Current prices,Unadjusted,
WTSQ.SFA9CA,2016.09,1872.091,32125,,F,Dollars,6,Wholesale Trade Survey - WTS,Industry by variable - (ANZSIC06) - Subannual Financial Collection,Basic material wholesaling,Total stocks,Current prices,Unadjusted,
WTSQ.SFA9CA,2016.12,1792.071,22577,,F,Dollars,6,Wholesale Trade Survey - WTS,Industry by variable - (ANZSIC06) - Subannual Financial Collection,Basic material wholesaling,Total stocks,Current prices,Unadjusted,
WTSQ.SFA9CA,2017.03,1895.689,18297,,F,Dollars,6,Wholesale Trade Survey - WTS,Industry by variable - (ANZSIC06) - Subannual Financial Collection,Basic material wholesaling,Total stocks,Current prices,Unadjusted,
WTSQ.SFA9CA,2017.06,1935.939,24502,,F,Dollars,6,Wholesale Trade Survey - WTS,Industry by variable - (ANZSIC06) - Subannual Financial Collection,Basic material wholesaling,Total stocks,Current prices,Unadjusted,
WTSQ.SFA9CA,2017.09,1985.484,3045,,F,Dollars,6,Wholesale Trade Survey - WTS,Industry by variable - (ANZSIC06) - Subannual Financial Collection,Basic material wholesaling,Total stocks,Current prices,Unadjusted,
WTSQ.SFA9CA,2017.12,1936.41,24896,,F,Dollars,6,Wholesale Trade Survey - WTS,Industry by variable - (ANZSIC06) - Subannual Financial Collection,Basic material wholesaling,Total stocks,Current prices,Unadjusted,
WTSQ.SFA9CA,2018.03,2011.598,18009,,F,Dollars,6,Wholesale Trade Survey - WTS,Industry by variable - (ANZSIC06) - Subannual Financial Collection,Basic material wholesaling,Total stocks,Current prices,Unadjusted,
WTSQ.SFA9CA,2018.06,2030.982,8276,,F,Dollars,6,Wholesale Trade Survey - WTS,Industry by variable - (ANZSIC06) - Subannual Financial Collection,Basic material wholesaling,Total stocks,Current prices,Unadjusted,
WTSQ.SFA9CA,2018.09,2171.403,12929,,F,Dollars,6,Wholesale Trade Survey - WTS,Industry by variable - (ANZSIC06) - Subannual Financial Collection,Basic material wholesaling,Total stocks,Current prices,Unadjusted,
WTSQ.SFA9CA,2018.12,2119.275,22912,,F,Dollars,6,Wholesale Trade Survey - WTS,Industry by variable - (ANZSIC06) - Subannual Financial Collection,Basic material wholesaling,Total stocks,Current prices,Unadjusted,
WTSQ.SFA9CA,2019.03,2207.423,4603,,F,Dollars,6,Wholesale Trade Survey - WTS,Industry by variable - (ANZSIC06) - Subannual Financial Collection,Basic material wholesaling,Total stocks,Current prices,Unadjusted,
WTSQ.SFA9CA,2019.06,2174.378,1322,,F,Dollars,6,Wholesale Trade Survey - WTS,Industry by variable - (ANZSIC06) - Subannual Financial Collection,Basic material wholesaling,Total stocks,Current prices,Unadjusted,
WTSQ.SFA9CA,2019.09,2187.442,12766,,F,Dollars,6,Wholesale Trade Survey - WTS,Industry by variable - (ANZSIC06) - Subannual Financial Collection,Basic material wholesaling,Total stocks,Current prices,Unadjusted,
WTSQ.SFA9CA,2019.12,2097.884,21251,,F,Dollars,6,Wholesale Trade Survey - WTS,Industry by variable - (ANZSIC06) - Subannual Financial Collection,Basic material wholesaling,Total stocks,Current prices,Unadjusted,
WTSQ.SFA9CA,2020.03,2049.337,7698,,F,Dollars,6,Wholesale Trade Survey - WTS,Industry by variable - (ANZSIC06) - Subannual Financial Collection,Basic material wholesaling,Total stocks,Current prices,Unadjusted,
WTSQ.SFA9CA,2020.06,2197.905,7503,,F,Dollars,6,Wholesale Trade Survey - WTS,Industry by variable - (ANZSIC06) - Subannual Financial Collection,Basic material wholesaling,Total stocks,Current prices,Unadjusted,
WTSQ.SFA9CA,2020.09,2204.264,10789,,F,Dollars,6,Wholesale Trade Survey - WTS,Industry by variable - (ANZSIC06) - Subannual Financial Collection,Basic material wholesaling,Total stocks,Current prices,Unadjusted,
WTSQ.SFA9CA,2020.12,2105.853,33551,,F,Dollars,6,Wholesale Trade Survey - WTS,Industry by variable - (ANZSIC06) - Subannual Financial Collection,Basic material wholesaling,Total stocks,Current prices,Unadjusted,
WTSQ.SFA9CA,2021.03,2213.559,20042,,F,Dollars,6,Wholesale Trade Survey - WTS,Industry by variable - (ANZSIC06) - Subannual Financial Collection,Basic material wholesaling,Total stocks,Current prices,Unadjusted,
WTSQ.SFA9CA,2021.06,2398.122,5077,,F,Dollars,6,Wholesale Trade Survey - WTS,Industry by variable - (ANZSIC06) - Subannual Financial Collection,Basic material wholesaling,Total stocks,Current prices,Unadjusted,
WTSQ.SFA9CA,2021.09,2464.518,15262,,F,Dollars,6,Wholesale Trade Survey - WTS,Industry by variable - (ANZSIC06) - Subannual Financial Collection,Basic material wholesaling,Total stocks,Current prices,Unadjusted,
WTSQ.SFA9CA,2021.12,2455.165,15129,,F,Dollars,6,Wholesale Trade Survey - WTS,Industry by variable - (ANZSIC06) - Subannual Financial Collection,Basic material wholesaling,Total stocks,Current prices,Unadjusted,
WTSQ.SFA9CS,1995.03,1097.36,27556,,R,Dollars,6,Wholesale Trade Survey - WTS,Industry by variable - (ANZSIC06) - Subannual Financial Collection,Basic material wholesaling,Total stocks,Current prices,Seasonally adjusted,
WTSQ.SFA9CS,1995.06,1044.45,33712,,R,Dollars,6,Wholesale Trade Survey - WTS,Industry by variable - (ANZSIC06) - Subannual Financial Collection,Basic material wholesaling,Total stocks,Current prices,Seasonally adjusted,
WTSQ.SFA9CS,1995.09,1006.85,16413,,R,Dollars,6,Wholesale Trade Survey - WTS,Industry by variable - (ANZSIC06) - Subannual Financial Collection,Basic material wholesaling,Total stocks,Current prices,Seasonally adjusted,
WTSQ.SFA9CS,1995.12,1008.06,27028,,R,Dollars,6,Wholesale Trade Survey - WTS,Industry by variable - (ANZSIC06) - Subannual Financial Collection,Basic material wholesaling,Total stocks,Current prices,Seasonally adjusted,
WTSQ.SFA9CS,1996.03,1040.91,13777,,R,Dollars,6,Wholesale Trade Survey - WTS,Industry by variable - (ANZSIC06) - Subannual Financial Collection,Basic material wholesaling,Total stocks,Current prices,Seasonally adjusted,
WTSQ.SFA9CS,1996.06,1031.97,26113,,R,Dollars,6,Wholesale Trade Survey - WTS,Industry by variable - (ANZSIC06) - Subannual Financial Collection,Basic material wholesaling,Total stocks,Current prices,Seasonally adjusted,
WTSQ.SFA9CS,1996.09,1024.49,6685,,R,Dollars,6,Wholesale Trade Survey - WTS,Industry by variable - (ANZSIC06) - Subannual Financial Collection,Basic material wholesaling,Total stocks,Current prices,Seasonally adjusted,
WTSQ.SFA9CS,1996.12,1026.14,12841,,R,Dollars,6,Wholesale Trade Survey - WTS,Industry by variable - (ANZSIC06) - Subannual Financial Collection,Basic material wholesaling,Total stocks,Current prices,Seasonally adjusted,
WTSQ.SFA9CS,1997.03,994.17,6696,,R,Dollars,6,Wholesale Trade Survey - WTS,Industry by variable - (ANZSIC06) - Subannual Financial Collection,Basic material wholesaling,Total stocks,Current prices,Seasonally adjusted,
WTSQ.SFA9CS,1997.06,987.83,2513,,R,Dollars,6,Wholesale Trade Survey - WTS,Industry by variable - (ANZSIC06) - Subannual Financial Collection,Basic material wholesaling,Total stocks,Current prices,Seasonally adjusted,
WTSQ.SFA9CS,1997.09,1006.24,5568,,R,Dollars,6,Wholesale Trade Survey - WTS,Industry by variable - (ANZSIC06) - Subannual Financial Collection,Basic material wholesaling,Total stocks,Current prices,Seasonally adjusted,
WTSQ.SFA9CS,1997.12,998.72,27302,,R,Dollars,6,Wholesale Trade Survey - WTS,Industry by variable - (ANZSIC06) - Subannual Financial Collection,Basic material wholesaling,Total stocks,Current prices,Seasonally adjusted,
WTSQ.SFA9CS,1998.03,1023.32,22395,,R,Dollars,6,Wholesale Trade Survey - WTS,Industry by variable - (ANZSIC06) - Subannual Financial Collection,Basic material wholesaling,Total stocks,Current prices,Seasonally adjusted,
WTSQ.SFA9CS,1998.06,1019.3,8767,,R,Dollars,6,Wholesale Trade Survey - WTS,Industry by variable - (ANZSIC06) - Subannual Financial Collection,Basic material wholesaling,Total stocks,Current prices,Seasonally adjusted,
WTSQ.SFA9CS,1998.09,974.92,4688,,R,Dollars,6,Wholesale Trade Survey - WTS,Industry by variable - (ANZSIC06) - Subannual Financial Collection,Basic material wholesaling,Total stocks,Current prices,Seasonally adjusted,
WTSQ.SFA9CS,1998.12,984.46,652,,R,Dollars,6,Wholesale Trade Survey - WTS,Industry by variable - (ANZSIC06) - Subannual Financial Collection,Basic material wholesaling,Total stocks,Current prices,Seasonally adjusted,
WTSQ.SFA9CS,1999.03,980.02,10873,,R,Dollars,6,Wholesale Trade Survey - WTS,Industry by variable - (ANZSIC06) - Subannual Financial Collection,Basic material wholesaling,Total stocks,Current prices,Seasonally adjusted,
WTSQ.SFA9CS,1999.06,1027.05,11548,,R,Dollars,6,Wholesale Trade Survey - WTS,Industry by variable - (ANZSIC06) - Subannual Financial Collection,Basic material wholesaling,Total stocks,Current prices,Seasonally adjusted,
WTSQ.SFA9CS,1999.09,1022.59,17652,,R,Dollars,6,Wholesale Trade Survey - WTS,Industry by variable - (ANZSIC06) - Subannual Financial Collection,Basic material wholesaling,Total stocks,Current prices,Seasonally adjusted,
WTSQ.SFA9CS,1999.12,1014.03,29234,,R,Dollars,6,Wholesale Trade Survey - WTS,Industry by variable - (ANZSIC06) - Subannual Financial Collection,Basic material wholesaling,Total stocks,Current prices,Seasonally adjusted,
WTSQ.SFA9CS,2000.03,1047.6,31633,,R,Dollars,6,Wholesale Trade Survey - WTS,Industry by variable - (ANZSIC06) - Subannual Financial Collection,Basic material wholesaling,Total stocks,Current prices,Seasonally adjusted,
WTSQ.SFA9CS,2000.06,1033.12,11983,,R,Dollars,6,Wholesale Trade Survey - WTS,Industry by variable - (ANZSIC06) - Subannual Financial Collection,Basic material wholesaling,Total stocks,Current prices,Seasonally adjusted,
WTSQ.SFA9CS,2000.09,1104,21637,,R,Dollars,6,Wholesale Trade Survey - WTS,Industry by variable - (ANZSIC06) - Subannual Financial Collection,Basic material wholesaling,Total stocks,Current prices,Seasonally adjusted,
WTSQ.SFA9CS,2000.12,1089.19,9450,,R,Dollars,6,Wholesale Trade Survey - WTS,Industry by variable - (ANZSIC06) - Subannual Financial Collection,Basic material wholesaling,Total stocks,Current prices,Seasonally adjusted,
WTSQ.SFA9CS,2001.03,1087.03,19800,,R,Dollars,6,Wholesale Trade Survey - WTS,Industry by variable - (ANZSIC06) - Subannual Financial Collection,Basic material wholesaling,Total stocks,Current prices,Seasonally adjusted,
WTSQ.SFA9CS,2001.06,1140.27,16406,,R,Dollars,6,Wholesale Trade Survey - WTS,Industry by variable - (ANZSIC06) - Subannual Financial Collection,Basic material wholesaling,Total stocks,Current prices,Seasonally adjusted,
WTSQ.SFA9CS,2001.09,1125.62,15851,,R,Dollars,6,Wholesale Trade Survey - WTS,Industry by variable - (ANZSIC06) - Subannual Financial Collection,Basic material wholesaling,Total stocks,Current prices,Seasonally adjusted,
WTSQ.SFA9CS,2001.12,1143.55,4046,,R,Dollars,6,Wholesale Trade Survey - WTS,Industry by variable - (ANZSIC06) - Subannual Financial Collection,Basic material wholesaling,Total stocks,Current prices,Seasonally adjusted,
